timestamp,ref_timestamp,ref_lat,ref_lon,x,y,z,delta_xy[0],delta_xy[1],delta_z,vx,vy,vz,z_deriv,delta_vxy[0],delta_vxy[1],delta_vz,ax,ay,az,yaw,ref_alt,dist_bottom,dist_bottom_rate,eph,epv,evh,evv,vxy_max,vz_max,hagl_min,hagl_max,xy_valid,z_valid,v_xy_valid,v_z_valid,xy_reset_counter,z_reset_counter,vxy_reset_counter,vz_reset_counter,xy_global,z_global,dist_bottom_valid
1864000,1696000,28.452394800000004,-13.8671276,-2.7375231e-06,1.1868397e-06,-1.572266e-06,-1.3456633e-06,9.890279e-07,0.0,-0.00039191317,-0.0001245384,-0.0007489166,-0.0007503313,-0.00033641583,0.00024725695,0.0,-0.017123993,-0.09398148,-0.1838263,0.40708607,0.0,0.10000157,0.0007489166,0.70622146,2.0000088,7.071068,0.7500069,inf,inf,inf,inf,1,1,1,1,1,0,1,1,1,1,1
1960000,1696000,28.452394800000004,-13.8671276,-6.5846216e-05,-7.897402e-05,0.0005425429,-1.3456633e-06,9.890279e-07,0.0,-0.0007578951,-0.0015987492,-0.015251191,-0.014262909,-0.00033641583,0.00024725695,0.0,-0.047330044,0.006343194,-0.19771884,0.40295675,0.0,0.12464648,0.015251191,0.42634213,0.8952507,5.7642403,0.7500481,inf,inf,inf,inf,1,1,1,1,1,0,1,1,1,1,1
2064000,1696000,28.452394800000004,-13.8671276,-0.00018812013,-0.00025918687,0.007000407,-1.3456633e-06,9.890279e-07,0.0,-0.00059882633,-0.0010472424,-0.03561429,-0.026081938,-0.00033641583,0.00024725695,0.0,0.021355808,0.03216502,-0.06026588,0.40317577,0.0,0.12780924,0.03561429,0.38266578,0.6367973,3.1554708,0.7490848,inf,inf,inf,inf,1,1,1,1,1,0,1,1,1,1,1
2160000,1696000,28.452394800000004,-13.8671276,-0.00016854187,-0.00029764054,0.010224501,-1.3456633e-06,9.890279e-07,0.0,0.0012886504,0.00011107286,-0.052309852,-0.035988674,-0.00033641583,0.00024725695,0.0,0.072396316,0.02339792,-0.1238156,0.40348008,0.0,0.12744851,0.052309852,0.35334107,0.546036,2.002166,0.74653256,inf,inf,inf,inf,1,1,1,1,1,0,1,1,1,1,1
2264000,1696000,28.452394800000004,-13.8671276,3.0789233e-05,-0.00018841316,0.008356703,-1.3456633e-06,9.890279e-07,0.0,0.002556695,0.0010465018,-0.0726043,-0.052324537,-0.00033641583,0.00024725695,0.0,0.061508324,0.12832332,-0.1104772,0.40374723,0.0,0.12931632,0.0726043,0.33364946,0.49583638,1.3940449,0.74172,inf,inf,inf,inf,1,1,1,1,1,0,1,1,1,1,1
2360000,1696000,28.452394800000004,-13.8671276,0.0004917385,0.00015172447,0.002367324,-1.3456633e-06,9.890279e-07,0.0,0.006620862,0.003025932,-0.087033294,-0.065888084,-0.00033641583,0.00024725695,0.0,0.05398932,0.023961954,-0.14346744,0.40423432,0.0,0.1353057,0.087033294,0.28297383,0.45422718,0.9797617,0.7308938,inf,inf,inf,inf,1,1,1,1,1,0,1,1,1,1,1
2464000,1696000,28.452394800000004,-13.8671276,0.0016484903,0.00040823146,-0.0066310237,-1.3456633e-06,9.890279e-07,0.0,0.01271488,0.0013689428,-0.10304668,-0.08198154,-0.00033641583,0.00024725695,0.0,0.011835771,0.0022412713,-0.0805743,0.40487775,0.0,0.14430404,0.10304668,0.27360266,0.4428809,0.77999157,0.719369,inf,inf,inf,inf,1,1,1,1,1,0,1,1,1,1,1
2560000,1696000,28.452394800000004,-13.8671276,0.0031978425,0.00055149966,-0.016121672,-1.3456633e-06,9.890279e-07,0.0,0.01994491,0.0009157933,-0.11922689,-0.098033994,-0.00033641583,0.00024725695,0.0,0.02711758,-0.031780783,-0.12024119,0.405451,0.0,0.15379469,0.11922689,0.24397014,0.42742136,0.61370313,0.69915473,inf,inf,inf,inf,1,1,1,1,1,0,1,1,1,1,1
2664000,1696000,28.452394800000004,-13.8671276,0.0054562176,0.0006824947,-0.026851078,-1.3456633e-06,9.890279e-07,0.0,0.02764169,0.0023213227,-0.13388754,-0.11154593,-0.00033641583,0.00024725695,0.0,0.13067614,0.03140098,-0.20110606,0.40584186,0.0,0.1645241,0.13388754,0.22572519,0.4211997,0.5049081,0.674647,inf,inf,inf,inf,1,1,1,1,1,0,1,1,1,1,1
2760000,1696000,28.452394800000004,-13.8671276,0.007953421,0.0008535674,-0.037185326,-1.3456633e-06,9.890279e-07,0.0,0.031971946,0.0026039644,-0.14435543,-0.1206976,-0.00033641583,0.00024725695,0.0,0.042460885,-0.052268345,-0.21273455,0.40580758,0.0,0.17485835,0.14435543,0.21856122,0.42407495,0.44483066,0.65283406,inf,inf,inf,inf,1,1,1,1,1,0,1,1,1,1,1
2864000,1696000,28.452394800000004,-13.8671276,0.0107970685,0.0009125944,-0.050235286,-1.3456633e-06,9.890279e-07,0.0,0.037441287,0.001831249,-0.15784742,-0.13389006,-0.00033641583,0.00024725695,0.0,0.07568128,0.039522476,-0.18714367,0.40541813,0.0,0.1879083,0.15784742,0.21470319,0.43141985,0.40234503,0.62961155,inf,inf,inf,inf,1,1,1,1,1,0,1,1,1,1,1
2960000,1696000,28.452394800000004,-13.8671276,0.013578539,0.0010694647,-0.063363254,-1.3456633e-06,9.890279e-07,0.0,0.042398997,0.0044237627,-0.17111261,-0.14683032,-0.00033641583,0.00024725695,0.0,0.07772023,0.010466973,-0.17101316,0.4052516,0.0,0.20103627,0.17111261,0.20018552,0.42514503,0.36152607,0.59727544,inf,inf,inf,inf,1,1,1,1,1,0,1,1,1,1,1
3064000,1696000,28.452394800000004,-13.8671276,0.016780002,0.0013298908,-0.076029554,-1.3456633e-06,9.890279e-07,0.0,0.050411377,0.00442605,-0.18035606,-0.15309557,-0.00033641583,0.00024725695,0.0,0.07496375,0.090462714,-0.12386962,0.40496254,0.0,0.21370257,0.18035606,0.19088589,0.42202166,0.3363681,0.56543535,inf,inf,inf,inf,1,1,1,1,1,0,1,1,1,1,1
3160000,1696000,28.452394800000004,-13.8671276,0.020009967,0.0016021745,-0.0846833,-1.3456633e-06,9.890279e-07,0.0,0.055977292,0.0063621765,-0.18516576,-0.15202814,-0.00033641583,0.00024725695,0.0,0.10292604,0.14357652,-0.07806066,0.4048308,0.0,0.22235632,0.18516576,0.18788533,0.42413,0.3264194,0.5412409,inf,inf,inf,inf,1,1,1,1,1,0,1,1,1,1,1
3264000,1696000,28.452394800000004,-13.8671276,0.023659253,0.0019815536,-0.0900821,-1.3456633e-06,9.890279e-07,0.0,0.06269936,0.006077375,-0.18586066,-0.14337745,-0.00033641583,0.00024725695,0.0,0.119577646,0.03846258,-0.0950694,0.40484205,0.0,0.22775513,0.18586066,0.18764149,0.4286037,0.32400656,0.51872075,inf,inf,inf,inf,1,1,1,1,1,0,1,1,1,1,1
3360000,1696000,28.452394800000004,-13.8671276,0.027135689,0.0023810847,-0.09241374,-1.3456633e-06,9.890279e-07,0.0,0.06891715,0.0065356432,-0.18663122,-0.13427113,-0.00033641583,0.00024725695,0.0,0.11570259,-0.022889303,-0.08097849,0.40495682,0.0,0.23008676,0.18663122,0.179918,0.41915292,0.31722036,0.4897705,inf,inf,inf,inf,1,1,1,1,1,0,1,1,1,1,1
3464000,1696000,28.452394800000004,-13.8671276,0.030902872,0.0028146112,-0.09450107,-1.3456633e-06,9.890279e-07,0.0,0.073983274,0.007261376,-0.18528579,-0.12359867,-0.00033641583,0.00024725695,0.0,0.119606115,0.04327806,-0.12708734,0.40491432,0.0,0.2321741,0.18528579,0.18143718,0.42182267,0.32247114,0.47082758,inf,inf,inf,inf,1,1,1,1,1,0,1,1,1,1,1
3560000,1696000,28.452394800000004,-13.8671276,0.034328755,0.0031920364,-0.096276,-1.3456633e-06,9.890279e-07,0.0,0.0786847,0.008077752,-0.18448158,-0.115500905,-0.00033641583,0.00024725695,0.0,0.1480302,-0.01647922,-0.2183048,0.40485257,0.0,0.23394902,0.18448158,0.17624512,0.41198227,0.32138664,0.44687322,inf,inf,inf,inf,1,1,1,1,1,0,1,1,1,1,1
3664000,1696000,28.452394800000004,-13.8671276,0.03799538,0.0035782063,-0.09460957,-1.3456633e-06,9.890279e-07,0.0,0.0846219,0.0072103217,-0.18068054,-0.10154344,-0.00033641583,0.00024725695,0.0,0.032200884,-0.0456068,-0.18037203,0.40490893,0.0,0.2322826,0.18068054,0.17405346,0.40521204,0.32365397,0.42644376,inf,inf,inf,inf,1,1,1,1,1,0,1,1,1,1,1
3760000,1696000,28.452394800000004,-13.8671276,0.041333247,0.0038665838,-0.092874944,-1.3456633e-06,9.890279e-07,0.0,0.088943504,0.007940989,-0.17937122,-0.092087716,-0.00033641583,0.00024725695,0.0,0.08585327,0.012427189,-0.08403975,0.40509662,0.0,0.23054796,0.17937122,0.17598121,0.40407273,0.32932582,0.41330895,inf,inf,inf,inf,1,1,1,1,1,0,1,1,1,1,1
3864000,1696000,28.452394800000004,-13.8671276,0.044541817,0.004155542,-0.091096886,-1.3456633e-06,9.890279e-07,0.0,0.0909503,0.0077588717,-0.17766868,-0.08297585,-0.00033641583,0.00024725695,0.0,0.07294924,-0.016748002,-0.12517346,0.4049794,0.0,0.2287699,0.17766868,0.17485407,0.3973122,0.33063632,0.3975321,inf,inf,inf,inf,1,1,1,1,1,0,1,1,1,1,1
3960000,1696000,28.452394800000004,-13.8671276,0.04709043,0.004359208,-0.08967457,-1.3456633e-06,9.890279e-07,0.0,0.09367255,0.009020588,-0.1777606,-0.077329144,-0.00033641583,0.00024725695,0.0,0.018518446,0.011477859,-0.16388017,0.4048422,0.0,0.22734758,0.1777606,0.17747816,0.39607266,0.33473673,0.38806236,inf,inf,inf,inf,1,1,1,1,1,0,1,1,1,1,1
4060000,1696000,28.452394800000004,-13.8671276,0.049704228,0.004664873,-0.09093718,-1.3456633e-06,9.890279e-07,0.0,0.09771152,0.010187424,-0.17738917,-0.07383914,-0.00033641583,0.00024725695,0.0,0.042833418,0.052897103,-0.06168563,0.4047705,0.0,0.2286102,0.17738917,0.18025887,0.39483812,0.3377394,0.38007084,inf,inf,inf,inf,1,1,1,1,1,0,1,1,1,1,1
4164000,1696000,28.452394800000004,-13.8671276,0.05169603,0.004941579,-0.09346251,-1.3456633e-06,9.890279e-07,0.0,0.099204965,0.010122125,-0.18034735,-0.07531364,-0.00033641583,0.00024725695,0.0,0.10364374,0.03559521,-0.10455487,0.40458658,0.0,0.23113553,0.18034735,0.17938237,0.38861898,0.33491156,0.36990282,inf,inf,inf,inf,1,1,1,1,1,0,1,1,1,1,1
4268000,1696000,28.452394800000004,-13.8671276,0.053137306,0.0051608533,-0.09457473,-1.3456633e-06,9.890279e-07,0.0,0.10115938,0.009923485,-0.18153787,-0.073537946,-0.00033641583,0.00024725695,0.0,0.063280806,0.012583222,-0.093902454,0.40443647,0.0,0.23224774,0.18153787,0.17941351,0.38396937,0.33139098,0.36145538,inf,inf,inf,inf,1,1,1,1,1,0,1,1,1,1,1
4364000,1696000,28.452394800000004,-13.8671276,0.05405766,0.005230595,-0.09607467,-1.3456633e-06,9.890279e-07,0.0,0.10173806,0.008295634,-0.18133906,-0.071072206,-0.00033641583,0.00024725695,0.0,0.11752874,0.07902171,-0.026325693,0.4046378,0.0,0.23374769,0.18133906,0.1818572,0.38323185,0.3307941,0.35746223,inf,inf,inf,inf,1,1,1,1,1,0,1,1,1,1,1
4468000,1696000,28.452394800000004,-13.8671276,0.054703444,0.0051160273,-0.09731982,-1.3456633e-06,9.890279e-07,0.0,0.101403385,0.007101294,-0.18244207,-0.06933535,-0.00033641583,0.00024725695,0.0,0.09660277,-0.03693676,-0.19346549,0.40490392,0.0,0.23499283,0.18244207,0.18043594,0.3781477,0.324477,0.35153732,inf,inf,inf,inf,1,1,1,1,1,0,1,1,1,1,1
4564000,1696000,28.452394800000004,-13.8671276,0.054893773,0.0047823973,-0.09892942,-1.3456633e-06,9.890279e-07,0.0,0.10047363,0.005886297,-0.18175721,-0.06669289,-0.00033641583,0.00024725695,0.0,0.054582544,0.022373758,-0.027283093,0.4049619,0.0,0.23660244,0.18175721,0.17688392,0.37143403,0.31557855,0.34563145,inf,inf,inf,inf,1,1,1,1,1,0,1,1,1,1,1
4668000,1696000,28.452394800000004,-13.8671276,0.054640427,0.004415877,-0.10126838,-1.3456633e-06,9.890279e-07,0.0,0.0984599,0.0059479964,-0.18382987,-0.06729775,-0.00033641583,0.00024725695,0.0,0.07516366,-0.047016967,-0.14815386,0.4048542,0.0,0.2389414,0.18382987,0.1809458,0.3737329,0.31537825,0.3453455,inf,inf,inf,inf,1,1,1,1,1,0,1,1,1,1,1
4764000,1696000,28.452394800000004,-13.8671276,0.054106697,0.0041437265,-0.10485474,-1.3456633e-06,9.890279e-07,0.0,0.09770393,0.007877154,-0.18521899,-0.06854679,-0.00033641583,0.00024725695,0.0,0.11494467,-0.00014451506,-0.09565893,0.40493205,0.0,0.24252775,0.18521899,0.17689349,0.3676697,0.30556622,0.3407316,inf,inf,inf,inf,1,1,1,1,1,0,1,1,1,1,1
4868000,1696000,28.452394800000004,-13.8671276,0.053433865,0.003981803,-0.10849914,-1.3456633e-06,9.890279e-07,0.0,0.09760775,0.00714931,-0.18907358,-0.07170816,-0.00033641583,0.00024725695,0.0,0.10327316,0.0013329844,-0.2095904,0.40494877,0.0,0.24617216,0.18907358,0.1804798,0.37037268,0.30475193,0.3413482,inf,inf,inf,inf,1,1,1,1,1,0,1,1,1,1,1
4964000,1696000,28.452394800000004,-13.8671276,0.052676342,0.0038174933,-0.111277446,-1.3456633e-06,9.890279e-07,0.0,0.0954184,0.0072154747,-0.1896192,-0.07075429,-0.00033641583,0.00024725695,0.0,0.027385917,0.03748698,-0.15568545,0.40494427,0.0,0.24895047,0.1896192,0.1761336,0.3648907,0.2949637,0.33748603,inf,inf,inf,inf,1,1,1,1,1,0,1,1,1,1,1
5068000,1696000,28.452394800000004,-13.8671276,0.0,0.0,-0.11456991,-1.3456633e-06,9.890279e-07,0.0,0.09189803,0.010084003,-0.18894055,-0.06887051,-0.00033641583,0.00024725695,0.0,0.09378558,0.024094878,-0.21187867,0.405253,0.0,0.25224292,0.18894055,0.1738622,0.36190394,0.2877023,0.33507323,inf,inf,inf,inf,0,1,0,1,1,0,1,1,1,1,1
5164000,1696000,28.452394800000004,-13.8671276,0.0,0.0,-0.117581606,-1.3456633e-06,9.890279e-07,0.0,0.0894413,0.011789253,-0.18864045,-0.06743481,-0.00033641583,0.00024725695,0.0,0.04631956,0.05236943,-0.11139921,0.40538317,0.0,0.25525463,0.18864045,0.17502995,0.36304522,0.28508636,0.33507487,inf,inf,inf,inf,0,1,0,1,1,0,1,1,1,1,1
5268000,1696000,28.452394800000004,-13.8671276,0.0,0.0,-0.119416945,-1.3456633e-06,9.890279e-07,0.0,0.08816834,0.011933678,-0.18975988,-0.06595251,-0.00033641583,0.00024725695,0.0,0.0318216,0.0065399213,-0.1764763,0.40558857,0.0,0.25708997,0.18975988,0.17264836,0.36045852,0.2784252,0.33278218,inf,inf,inf,inf,0,1,0,1,1,0,1,1,1,1,1
5364000,1696000,28.452394800000004,-13.8671276,0.0,0.0,-0.12152862,-1.3456633e-06,9.890279e-07,0.0,0.0883054,0.012262272,-0.18851903,-0.06302448,-0.00033641583,0.00024725695,0.0,0.010594143,-0.005146008,-0.043201257,0.40562308,0.0,0.25920165,0.18851903,0.17370601,0.36188275,0.27631992,0.33274874,inf,inf,inf,inf,0,1,0,1,1,0,1,1,1,1,1
5468000,1696000,28.452394800000004,-13.8671276,0.0,0.0,-0.12367247,-1.3456633e-06,9.890279e-07,0.0,0.0857551,0.011880533,-0.18765295,-0.060497537,-0.00033641583,0.00024725695,0.0,0.084454946,0.040041164,-0.019075347,0.40552658,0.0,0.2613455,0.18765295,0.17123204,0.3595169,0.27032104,0.33023682,inf,inf,inf,inf,0,1,0,1,1,0,1,1,1,1,1
5564000,1696000,28.452394800000004,-13.8671276,0.0,0.0,-0.123763636,-1.3456633e-06,9.890279e-07,0.0,0.08584865,0.012355252,-0.18541549,-0.05515756,-0.00033641583,0.00024725695,0.0,0.06995198,0.037733186,-0.1395121,0.40549773,0.0,0.26143664,0.18541549,0.17227848,0.36113772,0.2688226,0.3299735,inf,inf,inf,inf,0,1,0,1,1,0,1,1,1,1,1
5668000,1696000,28.452394800000004,-13.8671276,0.0,0.0,-0.12434777,-1.3456633e-06,9.890279e-07,0.0,0.085228585,0.0116600385,-0.18262321,-0.050160468,-0.00033641583,0.00024725695,0.0,0.14561394,-0.029940069,-0.0044582407,0.4054772,0.0,0.2620208,0.18262321,0.16990262,0.3589511,0.26360878,0.32712758,inf,inf,inf,inf,0,1,0,1,1,0,1,1,1,1,1
5772000,1696000,28.452394800000004,-13.8671276,0.0,0.0,-0.12503465,-1.3456633e-06,9.890279e-07,0.0,0.08352679,0.0131407585,-0.18063675,-0.04657928,-0.00033641583,0.00024725695,0.0,0.08405727,-0.037917532,-0.07314886,0.40557355,0.0,0.26270765,0.18063675,0.17265701,0.3627159,0.2642904,0.32753763,inf,inf,inf,inf,0,1,0,1,1,0,1,1,1,1,1
5868000,1696000,28.452394800000004,-13.8671276,0.0,0.0,-0.123970896,-1.3456633e-06,9.890279e-07,0.0,0.08207982,0.012568017,-0.177364,-0.040507138,-0.00033641583,0.00024725695,0.0,0.08481085,0.009792754,-0.044268552,0.40572712,0.0,0.26164392,0.177364,0.16866332,0.35850424,0.25809047,0.32317984,inf,inf,inf,inf,0,1,0,1,1,0,1,1,1,1,1
5964000,1696000,28.452394800000004,-13.8671276,0.0,0.0,-0.12444768,-1.3456633e-06,9.890279e-07,0.0,0.08078457,0.011930113,-0.17211296,-0.03478569,-0.00033641583,0.00024725695,0.0,0.036480047,-0.05349149,-0.08299108,0.40545872,0.0,0.2621207,0.17211296,0.16972758,0.36018568,0.25752723,0.32209077,inf,inf,inf,inf,0,1,0,1,1,0,1,1,1,1,1
6068000,1696000,28.452394800000004,-13.8671276,0.0,0.0,-0.12283955,-1.3456633e-06,9.890279e-07,0.0,0.07475129,0.01210556,-0.16911474,-0.02952049,-0.00033641583,0.00024725695,0.0,0.08315645,0.061844014,-0.05406141,0.40543488,0.0,0.14399979,0.16911474,0.17255734,0.36395037,0.2587836,0.32182217,inf,inf,inf,inf,0,1,0,1,1,0,1,1,1,1,1
6164000,1696000,28.452394800000004,-13.8671276,0.0,0.0,-0.121432364,-1.3456633e-06,9.890279e-07,0.0,0.072194725,0.010783572,-0.16418472,-0.023211822,-0.00033641583,0.00024725695,0.0,0.04720475,0.015481861,-0.001961365,0.40553385,0.0,0.14383781,0.16418472,0.16799642,0.3591321,0.2521767,0.31635687,inf,inf,inf,inf,0,1,0,1,1,0,1,1,1,1,1
6268000,1696000,28.452394800000004,-13.8671276,0.016339798,0.003138265,-0.11685758,-0.022291481,-0.0032633767,0.0,0.008002506,0.0033465372,-0.008512699,-0.0040960694,-0.06255691,-0.0080844965,0.14877982,0.04359675,0.049834166,-0.19872001,0.40549138,0.0,0.14042439,0.008512699,1.0000032,0.3603342,0.31625742,0.20803402,inf,inf,inf,inf,1,1,1,1,2,0,2,2,1,1,1
6364000,1696000,28.452394800000004,-13.8671276,0.0090011805,0.0022606049,-0.09669466,-0.022291481,-0.0032633767,0.0,0.007968932,0.0029673185,-0.005888878,0.05062617,-0.06255691,-0.0080844965,0.14877982,0.11529426,0.0007603739,-0.13037677,0.40539148,0.0,0.13340074,0.005888878,1.0005416,0.33517233,0.3174022,0.208612,inf,inf,inf,inf,1,1,1,1,2,0,2,2,1,1,1
6468000,1696000,28.452394800000004,-13.8671276,0.0015535685,0.0014977731,-0.07305743,-0.022291481,-0.0032633767,0.0,0.0072068227,0.005340304,-0.0055351104,0.08859122,-0.06255691,-0.0080844965,0.14877982,0.07772256,0.059032723,0.020347534,0.4055085,0.0,0.11995922,0.0055351104,0.81756425,0.31934264,0.29173014,0.18310241,inf,inf,inf,inf,1,1,1,1,2,0,2,2,1,1,1
6564000,1696000,28.452394800000004,-13.8671276,-0.0030869714,0.0012709002,-0.054333743,-0.022291481,-0.0032633767,0.0,0.011108516,0.007053899,-0.0030293711,0.11310135,-0.06255691,-0.0080844965,0.14877982,0.106866054,0.07505495,-0.03704894,0.4054931,0.0,0.11163677,0.0030293711,0.81944364,0.30404797,0.29608673,0.18439479,inf,inf,inf,inf,1,1,1,1,2,0,2,2,1,1,1
6668000,1696000,28.452394800000004,-13.8671276,-0.005581346,0.001453793,-0.038007244,-0.022291481,-0.0032633767,0.0,0.014079018,0.011226579,-0.00292668,0.12674506,-0.06255691,-0.0080844965,0.14877982,0.030918919,0.09797221,-0.123606056,0.40552056,0.0,0.102396116,0.00292668,0.7105924,0.2898965,0.2781811,0.16672866,inf,inf,inf,inf,1,1,1,1,2,0,2,2,1,1,1
6764000,1696000,28.452394800000004,-13.8671276,-0.005820436,0.0018600743,-0.026242264,-0.022291481,-0.0032633767,0.0,0.019608736,0.013318103,-0.006066545,0.12936644,-0.06255691,-0.0080844965,0.14877982,0.070223525,0.034661606,-0.05409121,0.40562364,0.0,0.1,0.006066545,0.7136803,0.28329214,0.28613338,0.16869648,inf,inf,inf,inf,1,1,1,1,2,0,2,2,1,1,1
6868000,1696000,28.452394800000004,-13.8671276,-0.0042570005,0.0028354283,-0.017164694,-0.022291481,-0.0032633767,0.0,0.027143594,0.018084906,-0.007800854,0.12792784,-0.06255691,-0.0080844965,0.14877982,0.055620678,0.07152408,-0.018433666,0.40553415,0.0,0.1,0.007800854,0.6394247,0.27220446,0.27349472,0.1555998,inf,inf,inf,inf,1,1,1,1,2,0,2,2,1,1,1
6964000,1696000,28.452394800000004,-13.8671276,-0.0022778078,0.004173937,-0.010625223,-0.022291481,-0.0032633767,0.0,0.03277305,0.019837007,-0.0098323785,0.12331592,-0.06255691,-0.0080844965,0.14877982,0.11822103,0.11822199,-0.027075408,0.4053146,0.0,0.1,0.0098323785,0.6437118,0.26857805,0.28519946,0.15814742,inf,inf,inf,inf,1,1,1,1,2,0,2,2,1,1,1
7068000,1696000,28.452394800000004,-13.8671276,0.0012486487,0.0059692673,-0.0049016173,-0.022291481,-0.0032633767,0.0,0.040279016,0.023551462,-0.014390469,0.11421505,-0.06255691,-0.0080844965,0.14877982,0.08383963,0.033323243,-0.11606141,0.40529415,0.0,0.1,0.014390469,0.5887841,0.25939074,0.27569953,0.14798798,inf,inf,inf,inf,1,1,1,1,2,0,2,2,1,1,1
7164000,1696000,28.452394800000004,-13.8671276,0.0046711364,0.0072589377,-0.001603317,-0.022291481,-0.0032633767,0.0,0.047345392,0.025643408,-0.014991698,0.10754335,-0.06255691,-0.0080844965,0.14877982,0.14733636,0.010889827,0.025227664,0.40548283,0.0,0.1,0.014991698,0.59433514,0.25778317,0.29087302,0.15110391,inf,inf,inf,inf,1,1,1,1,2,0,2,2,1,1,1
7268000,1696000,28.452394800000004,-13.8671276,0.009591856,0.008836079,0.0005629023,-0.022291481,-0.0032633767,0.0,0.05500685,0.024709985,-0.019962491,0.095149234,-0.06255691,-0.0080844965,0.14877982,0.1304419,-0.055466883,-0.1376029,0.4055373,0.0,0.1,0.019962491,0.5513733,0.24987496,0.28260934,0.1429252,inf,inf,inf,inf,1,1,1,1,2,0,2,2,1,1,1
7364000,1696000,28.452394800000004,-13.8671276,0.013954788,0.009822752,0.0023772907,-0.022291481,-0.0032633767,0.0,0.06002571,0.026056366,-0.019989293,0.08875359,-0.06255691,-0.0080844965,0.14877982,0.021036712,0.110496655,-0.040185634,0.40538236,0.0,0.1,0.019989293,0.5582857,0.24968025,0.30047485,0.146565,inf,inf,inf,inf,1,1,1,1,2,0,2,2,1,1,1
7468000,1696000,28.452394800000004,-13.8671276,0.01956367,0.011131632,0.0032590972,-0.022291481,-0.0032633767,0.0,0.06780268,0.026869973,-0.024982305,0.07663938,-0.06255691,-0.0080844965,0.14877982,0.035462286,-0.006013193,-0.014914199,0.40523195,0.0,0.1,0.024982305,0.52318,0.2427054,0.29170683,0.13974544,inf,inf,inf,inf,1,1,1,1,2,0,2,2,1,1,1
7564000,1696000,28.452394800000004,-13.8671276,0.023251511,0.011827112,0.0037739484,-0.022291481,-0.0032633767,0.0,0.069581315,0.027069733,-0.027319923,0.068202384,-0.06255691,-0.0080844965,0.14877982,0.10379796,0.0070711463,-0.028810462,0.40542763,0.0,0.1,0.027319923,0.53153855,0.24353063,0.31164256,0.14384109,inf,inf,inf,inf,1,1,1,1,2,0,2,2,1,1,1
7668000,1696000,28.452394800000004,-13.8671276,0.027791208,0.012945384,0.0034293642,-0.022291481,-0.0032633767,0.0,0.07339136,0.028302185,-0.031061996,0.057910144,-0.06255691,-0.0080844965,0.14877982,0.0904799,0.022972679,0.018723307,0.40552628,0.0,0.1,0.031061996,0.5017335,0.23723242,0.30114383,0.1379144,inf,inf,inf,inf,1,1,1,1,2,0,2,2,1,1,1
7764000,1696000,28.452394800000004,-13.8671276,0.029600171,0.01338223,0.0027536708,-0.022291481,-0.0032633767,0.0,0.07312633,0.025848746,-0.033236265,0.050137393,-0.06255691,-0.0080844965,0.14877982,0.1376636,-0.068560414,-0.023592262,0.40546075,0.0,0.1,0.033236265,0.5115746,0.23878898,0.32233328,0.14236616,inf,inf,inf,inf,1,1,1,1,2,0,2,2,1,1,1
7868000,1696000,28.452394800000004,-13.8671276,0.032146428,0.013953066,0.0016459664,-0.022291481,-0.0032633767,0.0,0.07339816,0.025374373,-0.03765753,0.040213313,-0.06255691,-0.0080844965,0.14877982,0.06888317,-0.0056171915,-0.11551938,0.40541324,0.0,0.1,0.03765753,0.4853594,0.23301913,0.3094147,0.13700154,inf,inf,inf,inf,1,1,1,1,2,0,2,2,1,1,1
7964000,1696000,28.452394800000004,-13.8671276,0.031866904,0.013872828,0.0032564208,-0.022291481,-0.0032633767,0.0,0.067956254,0.025573889,-0.03893348,0.03719028,-0.06255691,-0.0080844965,0.14877982,0.07625937,0.070776194,-0.056691464,0.4052527,0.0,0.1,0.03893348,0.49664786,0.23351069,0.3311447,0.14130872,inf,inf,inf,inf,1,1,1,1,2,0,2,2,1,1,1
8067999,1696000,28.452394800000004,-13.8671276,0.03228813,0.014193286,0.003734421,-0.022291481,-0.0032633767,0.0,0.067822285,0.02560834,-0.038068492,0.03503224,-0.06255691,-0.0080844965,0.14877982,0.13066493,0.08494758,-0.034781486,0.40518802,0.0,0.10030903,0.038068492,0.47283772,0.22976156,0.3156779,0.13665833,inf,inf,inf,inf,1,1,1,1,2,0,2,2,1,1,1
8163999,1696000,28.452394800000004,-13.8671276,0.031013532,0.013910948,0.006573677,-0.022291481,-0.0032633767,0.0,0.06457624,0.02369135,-0.0357298,0.036814332,-0.06255691,-0.0080844965,0.14877982,0.01050812,0.020204099,-0.07974953,0.40519005,0.0,0.1,0.0357298,0.4854719,0.23070249,0.3375304,0.14111617,inf,inf,inf,inf,1,1,1,1,2,0,2,2,1,1,1
8268000,1696000,28.452394800000004,-13.8671276,0.030772794,0.013872201,0.008376251,-0.022291481,-0.0032633767,0.0,0.06280737,0.02310389,-0.032458343,0.037748083,-0.06255691,-0.0080844965,0.14877982,-0.05419561,0.0820824,0.0046305354,0.40521348,0.0,0.1,0.032458343,0.46324867,0.2272177,0.3196252,0.13660067,inf,inf,inf,inf,1,1,1,1,2,0,2,2,1,1,1
8371999,1696000,28.452394800000004,-13.8671276,0.029188337,0.013342681,0.010030592,-0.022291481,-0.0032633767,0.0,0.05915451,0.023916975,-0.032751154,0.034902006,-0.06255691,-0.0080844965,0.14877982,0.007167795,-0.018124169,0.025564676,0.40533972,0.0,0.1,0.032751154,0.47833064,0.2292363,0.3428528,0.14166681,inf,inf,inf,inf,1,1,1,1,2,0,2,2,1,1,1
8468000,1696000,28.452394800000004,-13.8671276,0.028637547,0.013356727,0.010444755,-0.022291481,-0.0032633767,0.0,0.057174794,0.024722576,-0.032735027,0.031725474,-0.06255691,-0.0080844965,0.14877982,0.07211111,0.07497579,-0.03474019,0.4053783,0.0,0.1,0.032735027,0.45588487,0.22522187,0.32137084,0.1366218,inf,inf,inf,inf,1,1,1,1,2,0,2,2,1,1,1
8572000,1696000,28.452394800000004,-13.8671276,0.026216157,0.01297978,0.011396593,-0.022291481,-0.0032633767,0.0,0.053886402,0.024320371,-0.031317025,0.030424744,-0.06255691,-0.0080844965,0.14877982,0.1034409,0.045960695,-0.04635844,0.40542892,0.0,0.1,0.031317025,0.47206253,0.2274994,0.3439916,0.14167473,inf,inf,inf,inf,1,1,1,1,2,0,2,2,1,1,1
8668000,1696000,28.452394800000004,-13.8671276,0.0251841,0.013170853,0.011300089,-0.022291481,-0.0032633767,0.0,0.051217265,0.02625413,-0.032058224,0.026532259,-0.06255691,-0.0080844965,0.14877982,0.0805224,0.06573239,-0.10575633,0.40543604,0.0,0.1,0.032058224,0.45020938,0.22228068,0.3212935,0.13622934,inf,inf,inf,inf,1,1,1,1,2,0,2,2,1,1,1
8772000,1696000,28.452394800000004,-13.8671276,0.022964373,0.012877016,0.011829374,-0.022291481,-0.0032633767,0.0,0.049141202,0.025580503,-0.030148163,0.026015451,-0.06255691,-0.0080844965,0.14877982,0.080172665,0.043541096,-0.037192363,0.40556306,0.0,0.1,0.030148163,0.4672842,0.22613543,0.34309626,0.1415607,inf,inf,inf,inf,1,1,1,1,2,0,2,2,1,1,1
8868000,1696000,28.452394800000004,-13.8671276,0.022090094,0.013103023,0.011788483,-0.022291481,-0.0032633767,0.0,0.047466185,0.024665035,-0.030240813,0.023282023,-0.06255691,-0.0080844965,0.14877982,0.014054122,0.07498867,-0.032245178,0.4055654,0.0,0.1,0.030240813,0.44581717,0.22108239,0.31980592,0.13604797,inf,inf,inf,inf,1,1,1,1,2,0,2,2,1,1,1
8972000,1696000,28.452394800000004,-13.8671276,0.020059837,0.013324849,0.012079647,-0.022291481,-0.0032633767,0.0,0.043812882,0.026984692,-0.031271588,0.02008346,-0.06255691,-0.0080844965,0.14877982,0.04381331,0.04126108,-0.024188308,0.40549555,0.0,0.1,0.031271588,0.4636032,0.22504598,0.34061846,0.1412372,inf,inf,inf,inf,1,1,1,1,2,0,2,2,1,1,1
9068000,1696000,28.452394800000004,-13.8671276,0.019146431,0.013662736,0.01216821,-0.022291481,-0.0032633767,0.0,0.041793037,0.025031846,-0.030555386,0.018944226,-0.06255691,-0.0080844965,0.14877982,0.10839334,-0.04196393,0.022567807,0.40542513,0.0,0.1,0.030555386,0.4424068,0.22013304,0.31711155,0.13566215,inf,inf,inf,inf,1,1,1,1,2,0,2,2,1,1,1
9172000,1696000,28.452394800000004,-13.8671276,0.01701729,0.012216402,0.013136067,-0.022291481,-0.0032633767,0.0,0.036180973,0.024731759,-0.029964197,0.018532414,-0.06255691,-0.0080844965,0.14877982,0.050253056,0.096233435,-0.069362104,0.40548956,0.0,0.1,0.029964197,0.46074,0.22276668,0.337109,0.14027222,inf,inf,inf,inf,1,1,1,1,2,0,2,2,1,1,1
9268000,1696000,28.452394800000004,-13.8671276,0.015986381,0.011478622,0.013015483,-0.022291481,-0.0032633767,0.0,0.03586077,0.023615131,-0.029045362,0.017506536,-0.06255691,-0.0080844965,0.14877982,0.055609502,0.020040663,-0.005437992,0.40561667,0.0,0.1,0.029045362,0.43974715,0.21937998,0.3137142,0.1350552,inf,inf,inf,inf,1,1,1,1,2,0,2,2,1,1,1
9372000,1696000,28.452394800000004,-13.8671276,0.014073469,0.010341369,0.013795981,-0.022291481,-0.0032633767,0.0,0.033784058,0.02256832,-0.027130164,0.018250616,-0.06255691,-0.0080844965,0.14877982,-0.056862827,0.052762914,-0.0038929281,0.40542468,0.0,0.1,0.027130164,0.45848542,0.222082,0.33272615,0.1394676,inf,inf,inf,inf,1,1,1,1,2,0,2,2,1,1,1
9468000,1696000,28.452394800000004,-13.8671276,0.013225625,0.009728333,0.014105324,-0.022291481,-0.0032633767,0.0,0.032397024,0.023580749,-0.02656513,0.017303875,-0.06255691,-0.0080844965,0.14877982,0.02082961,-0.08071479,0.00390131,0.4054816,0.0,0.1,0.02656513,0.4376697,0.21878648,0.30967104,0.13423415,inf,inf,inf,inf,1,1,1,1,2,0,2,2,1,1,1
9572000,1696000,28.452394800000004,-13.8671276,0.011505162,0.0076978365,0.014970027,-0.022291481,-0.0032633767,0.0,0.030462028,0.020850172,-0.023414373,0.019257087,-0.06255691,-0.0080844965,0.14877982,0.033515476,0.033804547,0.011347233,0.40524566,0.0,0.1,0.023414373,0.45669344,0.2215231,0.32777733,0.1384288,inf,inf,inf,inf,1,1,1,1,2,0,2,2,1,1,1
9668000,1696000,28.452394800000004,-13.8671276,0.010833005,0.0064775553,0.014418152,-0.022291481,-0.0032633767,0.0,0.028196998,0.018234111,-0.025288386,0.0149954185,-0.06255691,-0.0080844965,0.14877982,0.021581829,0.0009981085,-0.057311725,0.4052583,0.0,0.1,0.025288386,0.43603897,0.21831003,0.30529994,0.13321002,inf,inf,inf,inf,1,1,1,1,2,0,2,2,1,1,1
9772000,1696000,28.452394800000004,-13.8671276,0.009101858,0.0054400936,0.01267473,-0.022291481,-0.0032633767,0.0,0.02376881,0.017043829,-0.025979914,0.011056584,-0.06255691,-0.0080844965,0.14877982,-0.044652317,-0.008653848,-0.0028805805,0.40524572,0.0,0.1,0.025979914,0.4552506,0.2210784,0.3225474,0.13718978,inf,inf,inf,inf,1,1,1,1,2,0,2,2,1,1,1
9876000,1696000,28.452394800000004,-13.8671276,0.008061018,0.0054598856,0.011326103,-0.022291481,-0.0032633767,0.0,0.022015985,0.01843549,-0.025665896,0.009079686,-0.06255691,-0.0080844965,0.14877982,0.048533488,0.010032715,-0.01762714,0.40513834,0.0,0.1,0.025665896,0.43616182,0.21864398,0.3019803,0.13244204,inf,inf,inf,inf,1,1,1,1,2,0,2,2,1,1,1
9972000,1696000,28.452394800000004,-13.8671276,0.006641428,0.006566199,0.010523543,-0.022291481,-0.0032633767,0.0,0.019870095,0.017801583,-0.025645485,0.0077526714,-0.06255691,-0.0080844965,0.14877982,0.03098865,0.020691862,0.015032477,0.40494874,0.0,0.1,0.025645485,0.45407572,0.2206786,0.31716096,0.13575074,inf,inf,inf,inf,1,1,1,1,2,0,2,2,1,1,1
10068000,1696000,28.452394800000004,-13.8671276,0.0057663713,0.007779313,0.009577787,-0.022291481,-0.0032633767,0.0,0.017854685,0.017848143,-0.02702991,0.005148187,-0.06255691,-0.0080844965,0.14877982,0.07961317,0.016622448,-0.006413087,0.40480512,0.0,0.100575365,0.02702991,0.43373832,0.21760431,0.2960363,0.13064823,inf,inf,inf,inf,1,1,1,1,2,0,2,2,1,1,1
10172000,1696000,28.452394800000004,-13.8671276,0.0037773126,0.008352643,0.008746672,-0.022291481,-0.0032633767,0.0,0.016192608,0.018156927,-0.028410653,0.0029049665,-0.06255691,-0.0080844965,0.14877982,0.048472777,0.017635385,-0.021405516,0.4046142,0.0,0.101406485,0.028410653,0.45310777,0.22032742,0.3117763,0.13416113,inf,inf,inf,inf,1,1,1,1,2,0,2,2,1,1,1
10276000,1696000,28.452394800000004,-13.8671276,0.0024608858,0.009222,0.008335466,-0.022291481,-0.0032633767,0.0,0.012167741,0.01844756,-0.024422402,0.0063745016,-0.06255691,-0.0080844965,0.14877982,0.039998133,0.011634073,0.004834495,0.4046012,0.0,0.10181769,0.024422402,0.43434605,0.21798907,0.29257527,0.12953421,inf,inf,inf,inf,1,1,1,1,2,0,2,2,1,1,1
10372000,1696000,28.452394800000004,-13.8671276,0.0010001088,0.009862748,0.009487956,-0.022291481,-0.0032633767,0.0,0.011985452,0.019202854,-0.024005717,0.007619453,-0.06255691,-0.0080844965,0.14877982,0.027768575,0.056268185,0.04492141,0.40455022,0.0,0.1006652,0.024005717,0.45229614,0.21995394,0.30641475,0.13242018,inf,inf,inf,inf,1,1,1,1,2,0,2,2,1,1,1
10476000,1696000,28.452394800000004,-13.8671276,0.00017852723,0.01071854,0.010230732,-0.022291481,-0.0032633767,0.0,0.013281409,0.018491713,-0.02172517,0.00998324,-0.06255691,-0.0080844965,0.14877982,0.09930487,-0.06419713,0.055070963,0.40437555,0.0,0.10094477,0.02172517,0.43369865,0.21767026,0.28784648,0.12789454,inf,inf,inf,inf,1,1,1,1,2,0,2,2,1,1,1
10572000,1696000,28.452394800000004,-13.8671276,-0.00046614296,0.010633343,0.01170515,-0.022291481,-0.0032633767,0.0,0.013368561,0.017012361,-0.018343655,0.0138291465,-0.06255691,-0.0080844965,0.14877982,0.026154883,0.0019413199,0.037726942,0.40420204,0.0,0.1,0.018343655,0.451605,0.22092286,0.30110556,0.13096099,inf,inf,inf,inf,1,1,1,1,2,0,2,2,1,1,1
10668000,1696000,28.452394800000004,-13.8671276,-0.00025784664,0.011039268,0.012418664,-0.022291481,-0.0032633767,0.0,0.012801931,0.017470354,-0.016138125,0.015346657,-0.06255691,-0.0080844965,0.14877982,0.046236582,0.03666563,-0.030661,0.40411025,0.0,0.1,0.016138125,0.4711793,0.22427528,0.31468102,0.133895,inf,inf,inf,inf,1,1,1,1,2,0,2,2,1,1,1
10772000,1696000,28.452394800000004,-13.8671276,0.0004503267,0.011404395,0.01231608,-0.022291481,-0.0032633767,0.0,0.012067428,0.0147908265,-0.015530929,0.014258413,-0.06255691,-0.0080844965,0.14877982,0.013105774,-0.057845503,0.031769272,0.40378046,0.0,0.1,0.015530929,0.4480576,0.22015993,0.29239684,0.12842073,inf,inf,inf,inf,1,1,1,1,2,0,2,2,1,1,1
10868000,1696000,28.452394800000004,-13.8671276,0.00070921634,0.010075401,0.012635612,-0.022291481,-0.0032633767,0.0,0.0104262065,0.011587687,-0.013921659,0.014752945,-0.06255691,-0.0080844965,0.14877982,-0.017278042,0.01335331,-0.008741393,0.40357608,0.0,0.1,0.013921659,0.46709195,0.22340955,0.30523837,0.13116404,inf,inf,inf,inf,1,1,1,1,2,0,2,2,1,1,1
10972000,1696000,28.452394800000004,-13.8671276,0.0014510205,0.009078462,0.012322332,-0.022291481,-0.0032633767,0.0,0.012001529,0.010510013,-0.012841618,0.014028074,-0.06255691,-0.0080844965,0.14877982,-0.036453623,-0.037840936,-0.0042645256,0.40343893,0.0,0.1,0.012841618,0.44511747,0.21947646,0.28489566,0.12599692,inf,inf,inf,inf,1,1,1,1,2,0,2,2,1,1,1
11068000,1696000,28.452394800000004,-13.8671276,0.0012655804,0.0076616136,0.01186674,-0.022291481,-0.0032633767,0.0,0.01167551,0.0075132954,-0.012228351,0.012923191,-0.06255691,-0.0080844965,0.14877982,-0.0046944185,-0.0027255008,-0.010069459,0.403222,0.0,0.1,0.012228351,0.4637044,0.22128691,0.29711673,0.12818433,inf,inf,inf,inf,1,1,1,1,2,0,2,2,1,1,1
11172000,1696000,28.452394800000004,-13.8671276,0.0015701186,0.00626703,0.011218336,-0.022291481,-0.0032633767,0.0,0.011934318,0.0045316108,-0.010887494,0.012439281,-0.06255691,-0.0080844965,0.14877982,0.044546407,0.002187902,-0.0013830139,0.40326312,0.0,0.1,0.010887494,0.44265264,0.21889448,0.27832586,0.12369718,inf,inf,inf,inf,1,1,1,1,2,0,2,2,1,1,1
11268000,1696000,28.452394800000004,-13.8671276,0.0013759264,0.004257435,0.011027441,-0.022291481,-0.0032633767,0.0,0.012250117,0.0025693346,-0.008724476,0.013295322,-0.06255691,-0.0080844965,0.14877982,0.057198975,-0.0006684058,0.008229165,0.40341142,0.0,0.1,0.008724476,0.46086052,0.22067271,0.29000184,0.12575586,inf,inf,inf,inf,1,1,1,1,2,0,2,2,1,1,1
11372000,1696000,28.452394800000004,-13.8671276,0.0015898602,0.002482617,0.010744742,-0.022291481,-0.0032633767,0.0,0.011717714,-0.001860141,-0.007081696,0.013414976,-0.06255691,-0.0080844965,0.14877982,-0.051428124,-0.013604076,-0.00025890765,0.40332678,0.0,0.1,0.007081696,0.44056424,0.21713522,0.2724741,0.12116822,inf,inf,inf,inf,1,1,1,1,2,0,2,2,1,1,1
11476000,1696000,28.452394800000004,-13.8671276,0.0005318319,0.0007539137,0.009455263,-0.022291481,-0.0032633767,0.0,0.008126228,-0.0023320073,-0.008099798,0.010105576,-0.06255691,-0.0080844965,0.14877982,-0.008624774,-0.0053823893,0.06543192,0.40337867,0.0,0.1,0.008099798,0.45999497,0.22086525,0.28459364,0.12376555,inf,inf,inf,inf,1,1,1,1,2,0,2,2,1,1,1
11572000,1696000,28.452394800000004,-13.8671276,1.7015685e-05,-0.00048036274,0.009170184,-0.022291481,-0.0032633767,0.0,0.0072404183,-0.003752209,-0.00929933,0.0080605745,-0.06255691,-0.0080844965,0.14877982,0.014109362,-0.04910398,-0.04085991,0.40332732,0.0,0.1,0.00929933,0.43877614,0.21669878,0.26722553,0.11906512,inf,inf,inf,inf,1,1,1,1,2,0,2,2,1,1,1
11668000,1696000,28.452394800000004,-13.8671276,-0.00034481258,-0.0014760051,0.009238169,-0.022291481,-0.0032633767,0.0,0.00507459,-0.003739267,-0.010718973,0.0063267425,-0.06255691,-0.0080844965,0.14877982,0.029896835,0.045462973,-0.06290152,0.40337524,0.0,0.1,0.010718973,0.45636564,0.21962008,0.27798107,0.12119837,inf,inf,inf,inf,1,1,1,1,2,0,2,2,1,1,1
11772000,1696000,28.452394800000004,-13.8671276,-0.00069484126,-0.0021868097,0.00860739,-0.022291481,-0.0032633767,0.0,0.0036610605,-0.005086931,-0.010426231,0.005854821,-0.06255691,-0.0080844965,0.14877982,0.032946613,0.08004375,0.04037283,0.40328914,0.0,0.1,0.010426231,0.43723258,0.21626131,0.2624857,0.11701989,inf,inf,inf,inf,1,1,1,1,2,0,2,2,1,1,1
11876000,1696000,28.452394800000004,-13.8671276,-0.0021444438,-0.0027520016,0.010427066,-0.022291481,-0.0032633767,0.0,0.0038480994,-0.0056894138,-0.010125539,0.007692064,-0.06255691,-0.0080844965,0.14877982,0.06700813,-0.03976982,0.022861173,0.4034391,0.0,0.1,0.010125539,0.45606774,0.21979335,0.2737785,0.119316645,inf,inf,inf,inf,1,1,1,1,2,0,2,2,1,1,1
11972000,1696000,28.452394800000004,-13.8671276,-0.002896504,-0.003416403,0.011956021,-0.022291481,-0.0032633767,0.0,0.0039538685,-0.008231656,-0.0082189245,0.010577496,-0.06255691,-0.0080844965,0.14877982,-0.0062141623,-0.0070113814,0.023157334,0.4034531,0.0,0.1,0.0082189245,0.4358907,0.217102,0.25814903,0.11537752,inf,inf,inf,inf,1,1,1,1,2,0,2,2,1,1,1
12068000,1696000,28.452394800000004,-13.8671276,-0.003540775,-0.004551133,0.014192506,-0.022291481,-0.0032633767,0.0,0.0030245192,-0.009496292,-0.007823305,0.012318974,-0.06255691,-0.0080844965,0.14877982,-0.00430108,-0.040856116,-0.04570465,0.4033361,0.0,0.1,0.007823305,0.45299086,0.2185754,0.2681852,0.116915524,inf,inf,inf,inf,1,1,1,1,2,0,2,2,1,1,1
12172000,1696000,28.452394800000004,-13.8671276,-0.0036989457,-0.005660053,0.016354505,-0.022291481,-0.0032633767,0.0,0.0038899423,-0.011014621,-0.007235957,0.013888333,-0.06255691,-0.0080844965,0.14877982,-0.03685223,0.03808049,-0.056805085,0.40336737,0.0,0.102027535,0.007235957,0.43471324,0.21662523,0.2541348,0.11343032,inf,inf,inf,inf,1,1,1,1,2,0,2,2,1,1,1
12268000,1696000,28.452394800000004,-13.8671276,-0.0038897404,-0.00612326,0.019550761,-0.022291481,-0.0032633767,0.0,0.0039316933,-0.0077282423,-0.0033527452,0.019506432,-0.06255691,-0.0080844965,0.14877982,0.0012859235,-0.043587305,0.04811957,0.40326834,0.0,0.10099562,0.0033527452,0.45160013,0.21802445,0.2638581,0.114862636,inf,inf,inf,inf,1,1,1,1,2,0,2,2,1,1,1
12372000,1696000,28.452394800000004,-13.8671276,-0.003642813,-0.0062168823,0.022377294,-0.022291481,-0.0032633767,0.0,0.0036960053,-0.005200806,-0.0022387481,0.021421835,-0.06255691,-0.0080844965,0.14877982,-0.001527951,0.044164013,-0.06457883,0.40329146,0.0,0.10135275,0.0022387481,0.43367156,0.21616095,0.2504201,0.111551054,inf,inf,inf,inf,1,1,1,1,2,0,2,2,1,1,1
12468000,1696000,28.452394800000004,-13.8671276,-0.0030296505,-0.0057099015,0.02596454,-0.022291481,-0.0032633767,0.0,0.0050494536,-0.0017480707,-0.0026731908,0.022392929,-0.06255691,-0.0080844965,0.14877982,-0.038545985,0.15389542,-0.30190963,0.40299535,0.0,0.10041812,0.0026731908,0.45036092,0.21878567,0.2598343,0.11323666,inf,inf,inf,inf,1,1,1,1,2,0,2,2,1,1,1
12572000,1696000,28.452394800000004,-13.8671276,-0.0027761706,-0.0046892357,0.024310485,-0.022291481,-0.0032633767,0.0,-0.0034504437,0.0039975517,-0.10733003,-0.081828214,-0.06255691,-0.0080844965,0.14877982,-0.07810682,0.0655259,-1.4226184,0.40256482,0.0,0.10226323,0.10733003,0.43274194,0.21565701,0.24694654,0.10971237,inf,inf,inf,inf,1,1,1,1,2,0,2,2,1,1,1
12668000,1696000,28.452394800000004,-13.8671276,-0.0039480603,-0.0032136855,0.009681819,-0.022291481,-0.0032633767,0.0,-0.020111468,0.014181257,-0.2403828,-0.21521163,-0.06255691,-0.0080844965,0.14877982,-0.19132093,0.13737883,-1.2832162,0.40255174,0.0,0.11816421,0.2403828,0.44924894,0.21818799,0.256365,0.11129574,inf,inf,inf,inf,1,1,1,1,2,0,2,2,1,1,1
12772000,1696000,28.452394800000004,-13.8671276,-0.0073457817,-0.00060257956,-0.018945292,-0.022291481,-0.0032633767,0.0,-0.045635138,0.024243778,-0.3698663,-0.34421903,-0.06255691,-0.0080844965,0.14877982,-0.12590863,0.10389513,-1.3011917,0.40291658,0.0,0.14842996,0.3698663,0.4318425,0.21513881,0.24533345,0.107928105,inf,inf,inf,inf,1,1,1,1,2,0,2,2,1,1,1
12868000,1696000,28.452394800000004,-13.8671276,-0.012610775,0.0020796934,-0.056680273,-0.022291481,-0.0032633767,0.0,-0.057393756,0.028653739,-0.494268,-0.46746194,-0.06255691,-0.0080844965,0.14877982,-0.0549907,0.007812019,-1.3966131,0.40334064,0.0,0.18616495,0.494268,0.44827572,0.21759377,0.25584516,0.10942403,inf,inf,inf,inf,1,1,1,1,2,0,2,2,1,1,1
12972000,1696000,28.452394800000004,-13.8671276,-0.018725457,0.0051988624,-0.11226851,-0.022291481,-0.0032633767,0.0,-0.061439052,0.030477704,-0.630165,-0.6032834,-0.06255691,-0.0080844965,0.14877982,0.01900934,0.059011795,-1.2805116,0.4036414,0.0,0.24175318,0.630165,0.43106395,0.2146148,0.24473338,0.10620075,inf,inf,inf,inf,1,1,1,1,2,0,2,2,1,1,1
13068000,1696000,28.452394800000004,-13.8671276,-0.024067389,0.0074792574,-0.17376265,-0.022291481,-0.0032633767,0.0,-0.0609105,0.030900188,-0.7542867,-0.7252025,-0.06255691,-0.0080844965,0.14877982,-0.00505906,-0.037488353,-1.3173697,0.40382996,0.0,0.30324733,0.7542867,0.44743717,0.21700364,0.255003,0.10762168,inf,inf,inf,inf,1,1,1,1,2,0,2,2,1,1,1
13172000,1696000,28.452394800000004,-13.8671276,-0.029567838,0.010094234,-0.25535998,-0.022291481,-0.0032633767,0.0,-0.05483308,0.02670379,-0.88985395,-0.86022216,-0.06255691,-0.0080844965,0.14877982,0.12376704,-0.033296205,-1.3352426,0.40386435,0.0,0.38484466,0.88985395,0.4303972,0.21413241,0.2439261,0.10455576,inf,inf,inf,inf,1,1,1,1,2,0,2,2,1,1,1
13268000,1696000,28.452394800000004,-13.8671276,-0.034867804,0.012999877,-0.34126472,-0.022291481,-0.0032633767,0.0,-0.050550655,0.02795179,-0.9392907,-0.9092547,-0.06255691,-0.0080844965,0.14877982,0.061607245,0.006540489,0.5188724,0.40405136,0.0,0.47074938,0.9392907,0.4467059,0.21647868,0.2539612,0.10591689,inf,inf,inf,inf,1,1,1,1,2,0,2,2,1,1,1
13372000,1696000,28.452394800000004,-13.8671276,-0.04038756,0.01624347,-0.43120036,-0.022291481,-0.0032633767,0.0,-0.047821276,0.026037477,-0.84014887,-0.8107526,-0.06255691,-0.0080844965,0.14877982,-0.00050033844,-0.031510398,0.89474016,0.40422496,0.0,0.56068504,0.84014887,0.4298224,0.21369004,0.24289565,0.10298683,inf,inf,inf,inf,1,1,1,1,2,0,2,2,1,1,1
13468000,1696000,28.452394800000004,-13.8671276,-0.04666994,0.01955235,-0.5062972,-0.022291481,-0.0032633767,0.0,-0.042888463,0.022862332,-0.7971448,-0.7679317,-0.06255691,-0.0080844965,0.14877982,0.12429055,-0.065425456,0.15212594,0.404111,0.0,0.6357818,0.7971448,0.44603518,0.21597375,0.25101218,0.10428366,inf,inf,inf,inf,1,1,1,1,2,0,2,2,1,1,1
13572000,1696000,28.452394800000004,-13.8671276,-0.05265943,0.022650262,-0.5872181,-0.022291481,-0.0032633767,0.0,-0.041219167,0.01864568,-0.762705,-0.73643667,-0.06255691,-0.0080844965,0.14877982,0.068051286,-0.0042759054,0.4225997,0.4041086,0.0,0.71670276,0.762705,0.42941773,0.21324961,0.23790994,0.101479106,inf,inf,inf,inf,1,1,1,1,2,0,2,2,1,1,1
13668000,1696000,28.452394800000004,-13.8671276,-0.058769245,0.025248656,-0.6603157,-0.022291481,-0.0032633767,0.0,-0.037361458,0.014435237,-0.7158912,-0.6944378,-0.06255691,-0.0080844965,0.14877982,5.5442793e-05,-0.1563123,0.43055505,0.40407822,0.0,0.78980035,0.7158912,0.4453929,0.21423952,0.24566287,0.102411926,inf,inf,inf,inf,1,1,1,1,2,0,2,2,1,1,1
13772000,1696000,28.452394800000004,-13.8671276,-0.06432467,0.027391752,-0.73495966,-0.022291481,-0.0032633767,0.0,-0.031581037,0.01184528,-0.6685773,-0.6521107,-0.06255691,-0.0080844965,0.14877982,0.09109955,0.007779861,0.44239497,0.4043166,0.0,0.8644443,0.6685773,0.428961,0.21282245,0.23384516,0.10005304,inf,inf,inf,inf,1,1,1,1,2,0,2,2,1,1,1
13868000,1696000,28.452394800000004,-13.8671276,-0.0692854,0.028647257,-0.8002056,-0.022291481,-0.0032633767,0.0,-0.026440311,0.009641835,-0.63326836,-0.6210091,-0.06255691,-0.0080844965,0.14877982,0.0827589,-0.0898896,0.38789862,0.40455487,0.0,0.92969024,0.63326836,0.44473583,0.21498679,0.24115431,0.10126172,inf,inf,inf,inf,1,1,1,1,2,0,2,2,1,1,1
13972000,1696000,28.452394800000004,-13.8671276,-0.07330037,0.029572945,-0.8671139,-0.022291481,-0.0032633767,0.0,-0.020140136,0.0067583574,-0.5965576,-0.588198,-0.06255691,-0.0080844965,0.14877982,0.07757174,0.013894299,0.3402568,0.4044423,0.0,0.99659854,0.5965576,0.42849705,0.21238211,0.22989345,0.098707676,inf,inf,inf,inf,1,1,1,1,2,0,2,2,1,1,1
14068000,1696000,28.452394800000004,-13.8671276,-0.076503076,0.029680911,-0.92553025,-0.022291481,-0.0032633767,0.0,-0.015212214,0.0056015723,-0.56201744,-0.5569424,-0.06255691,-0.0080844965,0.14877982,0.096766286,0.0023349784,0.30366236,0.40436748,0.0,1.055015,0.56201744,0.44408017,0.21449667,0.2371944,0.099892944,inf,inf,inf,inf,1,1,1,1,2,0,2,2,1,1,1
14172000,1696000,28.452394800000004,-13.8671276,-0.079356976,0.029965641,-0.9858734,-0.022291481,-0.0032633767,0.0,-0.011492726,0.002478942,-0.5323081,-0.53065115,-0.06255691,-0.0080844965,0.14877982,0.061181035,-0.03973969,0.38108787,0.4043484,0.0,1.1153581,0.5323081,0.42801952,0.21194197,0.22651298,0.09745689,inf,inf,inf,inf,1,1,1,1,2,0,2,2,1,1,1
14268000,1696000,28.452394800000004,-13.8671276,-0.083298504,0.030770678,-1.0386175,-0.022291481,-0.0032633767,0.0,-0.009317541,0.002868454,-0.5033693,-0.5044173,-0.06255691,-0.0080844965,0.14877982,0.07354565,0.065261506,0.3336463,0.40425622,0.0,1.1681021,0.5033693,0.4434285,0.21399651,0.23368801,0.098621204,inf,inf,inf,inf,1,1,1,1,2,0,2,2,1,1,1
14372000,1696000,28.452394800000004,-13.8671276,-0.086467855,0.031587575,-1.0919174,-0.022291481,-0.0032633767,0.0,-0.0056698625,0.004194147,-0.47722206,-0.4799616,-0.06255691,-0.0080844965,0.14877982,0.08658635,-0.020009268,0.20283645,0.40436125,0.0,1.221402,0.47722206,0.42753604,0.211503,0.2235119,0.09630408,inf,inf,inf,inf,1,1,1,1,2,0,2,2,1,1,1
14468000,1696000,28.452394800000004,-13.8671276,-0.08930908,0.031911727,-1.1397521,-0.022291481,-0.0032633767,0.0,-0.0014163906,0.0025209447,-0.45785633,-0.46264285,-0.06255691,-0.0080844965,0.14877982,-0.031173315,0.036005825,0.26395357,0.40440848,0.0,1.2692368,0.45785633,0.44278616,0.21350068,0.23058622,0.097456664,inf,inf,inf,inf,1,1,1,1,2,0,2,2,1,1,1
14572000,1696000,28.452394800000004,-13.8671276,-0.09164701,0.03236854,-1.1885009,-0.022291481,-0.0032633767,0.0,-0.001011144,0.0020162466,-0.43151143,-0.43784067,-0.06255691,-0.0080844965,0.14877982,0.066800386,-0.036579743,0.23280269,0.4042465,0.0,1.3179855,0.43151143,0.42705065,0.21105388,0.22087112,0.095248,inf,inf,inf,inf,1,1,1,1,2,0,2,2,1,1,1
14668000,1696000,28.452394800000004,-13.8671276,-0.09410641,0.03304655,-1.2325344,-0.022291481,-0.0032633767,0.0,0.00095275015,0.002228871,-0.41409478,-0.42259267,-0.06255691,-0.0080844965,0.14877982,0.022178719,0.008432674,0.21669081,0.40404695,0.0,1.3620191,0.41409478,0.44215629,0.2129919,0.22785991,0.0963919,inf,inf,inf,inf,1,1,1,1,2,0,2,2,1,1,1
14772000,1696000,28.452394800000004,-13.8671276,-0.095733926,0.03373393,-1.277447,-0.022291481,-0.0032633767,0.0,0.0023506861,0.00238769,-0.39014935,-0.40025604,-0.06255691,-0.0080844965,0.14877982,-0.06578056,-0.07593683,0.17490889,0.40392092,0.0,1.4069316,0.39014935,0.42657045,0.21057315,0.21848541,0.09427735,inf,inf,inf,inf,1,1,1,1,2,0,2,2,1,1,1
14868000,1696000,28.452394800000004,-13.8671276,-0.09646054,0.034191407,-1.3173276,-0.022291481,-0.0032633767,0.0,0.0059746527,0.000118043376,-0.37233242,-0.38412634,-0.06255691,-0.0080844965,0.14877982,0.020025326,0.0024729813,0.27479973,0.4039855,0.0,1.4468123,0.37233242,0.4415411,0.21245609,0.22538616,0.09541963,inf,inf,inf,inf,1,1,1,1,2,0,2,2,1,1,1
14972000,1696000,28.452394800000004,-13.8671276,-0.09633314,0.03445287,-1.3587592,-0.022291481,-0.0032633767,0.0,0.008961267,-0.0023908454,-0.356379,-0.3697499,-0.06255691,-0.0080844965,0.14877982,0.105709895,0.017267302,0.21607894,0.40408915,0.0,1.4882438,0.356379,0.4260983,0.21008521,0.21629167,0.0934024,inf,inf,inf,inf,1,1,1,1,2,0,2,2,1,1,1
15068000,1696000,28.452394800000004,-13.8671276,-0.09539138,0.034830514,-1.3962603,-0.022291481,-0.0032633767,0.0,0.013326371,-0.0029078377,-0.34034836,-0.35580775,-0.06255691,-0.0080844965,0.14877982,0.03909139,-0.007880262,0.109816894,0.4039607,0.0,1.5257449,0.34034836,0.44094214,0.21193556,0.22313291,0.09455588,inf,inf,inf,inf,1,1,1,1,2,0,2,2,1,1,1
15172000,1696000,28.452394800000004,-13.8671276,-0.09401842,0.035200734,-1.4344368,-0.022291481,-0.0032633767,0.0,0.015509564,-0.0011324922,-0.32280883,-0.33961672,-0.06255691,-0.0080844965,0.14877982,0.102586865,-0.013672593,0.17534475,0.40464818,0.0,1.5639215,0.32280883,0.42573875,0.20963885,0.21176411,0.09264072,inf,inf,inf,inf,1,1,1,1,2,0,2,2,1,1,1
15268000,1696000,28.452394800000004,-13.8671276,-0.0933891,0.03551498,-1.4669582,-0.022291481,-0.0032633767,0.0,0.01793965,0.00014895486,-0.3100313,-0.32680815,-0.06255691,-0.0080844965,0.14877982,-0.014459452,0.019273741,0.017208045,0.40488222,0.0,1.5964428,0.3100313,0.44017154,0.21147206,0.21172811,0.09381097,inf,inf,inf,inf,1,1,1,1,2,0,2,2,1,1,1
15372000,1696000,28.452394800000004,-13.8671276,-0.09222442,0.035696264,-1.501706,-0.022291481,-0.0032633767,0.0,0.017063173,-0.0048114792,-0.29824844,-0.31575185,-0.06255691,-0.0080844965,0.14877982,-0.13657169,0.00031427768,0.10302848,0.40487897,0.0,1.6311907,0.29824844,0.42542508,0.20920715,0.20048623,0.09197291,inf,inf,inf,inf,1,1,1,1,2,0,2,2,1,1,1
15468000,1696000,28.452394800000004,-13.8671276,-0.091961026,0.035446048,-1.5334016,-0.022291481,-0.0032633767,0.0,0.013414288,-0.0060250266,-0.28643852,-0.3053758,-0.06255691,-0.0080844965,0.14877982,0.014105578,-0.0022627136,0.13561267,0.4045632,0.0,1.6628863,0.28643852,0.4390605,0.21099687,0.2055168,0.09315289,inf,inf,inf,inf,1,1,1,1,2,0,2,2,1,1,1
15572000,1696000,28.452394800000004,-13.8671276,-0.09144839,0.035092324,-1.5666193,-0.022291481,-0.0032633767,0.0,0.014283941,-0.0060363915,-0.27423942,-0.29465517,-0.06255691,-0.0080844965,0.14877982,0.03598368,0.0376622,0.10631419,0.40449372,0.0,1.6961039,0.27423942,0.4246201,0.20878197,0.20021948,0.09139474,inf,inf,inf,inf,1,1,1,1,2,0,2,2,1,1,1
15668000,1696000,28.452394800000004,-13.8671276,-0.091016114,0.03459553,-1.5957344,-0.022291481,-0.0032633767,0.0,0.018317476,-0.0061560324,-0.2608376,-0.28202787,-0.06255691,-0.0080844965,0.14877982,-0.019785801,-0.024339234,0.17397663,0.4047553,0.0,1.725219,0.2608376,0.4376149,0.21055017,0.20972283,0.09259311,inf,inf,inf,inf,1,1,1,1,2,0,2,2,1,1,1
15772000,1696000,28.452394800000004,-13.8671276,-0.0903356,0.034069497,-1.6247791,-0.022291481,-0.0032633767,0.0,0.01702316,-0.0060853343,-0.24668339,-0.26770088,-0.06255691,-0.0080844965,0.14877982,0.052879576,0.05412719,0.018566845,0.4052067,0.0,1.7542638,0.24668339,0.4234496,0.20836961,0.2082473,0.09090155,inf,inf,inf,inf,1,1,1,1,2,0,2,2,1,1,1
15868000,1696000,28.452394800000004,-13.8671276,-0.09108358,0.033825878,-1.6495751,-0.022291481,-0.0032633767,0.0,0.017249076,-0.0036997925,-0.24218981,-0.26194763,-0.06255691,-0.0080844965,0.14877982,0.006074551,0.020731967,0.025383195,0.40523058,0.0,1.7790598,0.24218981,0.43602377,0.21011421,0.22104509,0.09211733,inf,inf,inf,inf,1,1,1,1,2,0,2,2,1,1,1
15972000,1696000,28.452394800000004,-13.8671276,-0.09100543,0.033675686,-1.6758437,-0.022291481,-0.0032633767,0.0,0.01813058,-0.0030449294,-0.23510088,-0.25365156,-0.06255691,-0.0080844965,0.14877982,0.106595956,-0.02721045,0.0903597,0.40516004,0.0,1.8053284,0.23510088,0.4504214,0.21124612,0.2364968,0.09323025,inf,inf,inf,inf,1,1,1,1,2,0,2,2,1,1,0
16075999,1696000,28.452394800000004,-13.8671276,-0.09071124,0.033931483,-1.7011981,-0.022291481,-0.0032633767,0.0,0.01991649,-0.0029650358,-0.22731732,-0.2447708,-0.06255691,-0.0080844965,0.14877982,0.09510327,0.05135685,0.03353227,0.40492773,0.0,1.8306828,0.22731732,0.43430576,0.20899236,0.23507571,0.09148696,inf,inf,inf,inf,1,1,1,1,2,0,2,2,1,1,0
16171999,1696000,28.452394800000004,-13.8671276,-0.09114335,0.035137963,-1.7231363,-0.022291481,-0.0032633767,0.0,0.018510878,-0.0044568535,-0.21885745,-0.23480168,-0.06255691,-0.0080844965,0.14877982,-0.015571736,0.0011884538,-0.01115724,0.40500057,0.0,1.852621,0.21885745,0.44747317,0.21073009,0.25086975,0.09269602,inf,inf,inf,inf,1,1,1,1,2,0,2,2,1,1,0
16276000,1696000,28.452394800000004,-13.8671276,-0.091143146,0.035879392,-1.7480514,-0.022291481,-0.0032633767,0.0,0.019008337,-0.0042469325,-0.26831904,-0.28285897,-0.06255691,-0.0080844965,0.14877982,-0.006633752,0.036334507,-0.9800102,0.40483183,0.0,1.877536,0.26831904,0.4316828,0.20852731,0.24796957,0.09101071,inf,inf,inf,inf,1,1,1,1,2,0,2,2,1,1,0
16380000,1696000,28.452394800000004,-13.8671276,-0.091898225,0.03615736,-1.784779,-0.022291481,-0.0032633767,0.0,0.013449162,-0.001383434,-0.41745162,-0.43199688,-0.06255691,-0.0080844965,0.14877982,-0.071971655,-0.008410556,-1.8015051,0.40449232,0.0,1.9142636,0.41745162,0.44606346,0.2096332,0.2658366,0.09216772,inf,inf,inf,inf,1,1,1,1,2,0,2,2,1,1,0
16476000,1696000,28.452394800000004,-13.8671276,-0.092814796,0.036552496,-1.8354596,-0.022291481,-0.0032633767,0.0,0.0053330013,-0.00018892658,-0.6307168,-0.64449507,-0.06255691,-0.0080844965,0.14877982,-0.06261586,-0.05664428,-2.5491843,0.40426448,0.0,1.9649442,0.6307168,0.4294383,0.20811693,0.26021674,0.09062304,inf,inf,inf,inf,1,1,1,1,2,0,2,2,1,1,0
16580000,1696000,28.452394800000004,-13.8671276,-0.09501905,0.037116244,-1.9158641,-0.022291481,-0.0032633767,0.0,-0.00036602077,8.0504404e-05,-0.9542293,-0.96519953,-0.06255691,-0.0080844965,0.14877982,-0.045924317,-0.007584454,-3.5811381,0.40407574,0.0,2.045349,0.9542293,0.44412237,0.20921364,0.28003252,0.09180141,inf,inf,inf,inf,1,1,1,1,2,0,2,2,1,1,0
16683999,1696000,28.452394800000004,-13.8671276,-0.096827984,0.037626304,-2.034616,-0.022291481,-0.0032633767,0.0,0.0006815795,0.0025863238,-1.3726194,-1.380623,-0.06255691,-0.0080844965,0.14877982,0.029956408,0.054491278,-4.333474,0.40422457,0.0,2.1641006,1.3726194,0.42861137,0.20712562,0.2740723,0.09023225,inf,inf,inf,inf,1,1,1,1,2,0,2,2,1,1,0
16780000,1696000,28.452394800000004,-13.8671276,-0.098337874,0.03806506,-2.179295,-0.022291481,-0.0032633767,0.0,0.00073474477,0.0005063907,-1.7618823,-1.7628949,-0.06255691,-0.0080844965,0.14877982,0.009519586,-0.050805546,-3.7216504,0.4041274,0.0,2.3087797,1.7618823,0.44267735,0.20883672,0.29377154,0.0914985,inf,inf,inf,inf,1,1,1,1,2,0,2,2,1,1,0
16884000,1696000,28.452394800000004,-13.8671276,-0.09931763,0.038140964,-2.3744297,-0.022291481,-0.0032633767,0.0,0.0027606837,0.0009223725,-2.0853338,-2.0803905,-0.06255691,-0.0080844965,0.14877982,0.033893898,0.005178677,-2.6128774,0.40428656,0.0,2.5039144,2.0853338,0.4271959,0.20680258,0.28558278,0.08998284,inf,inf,inf,inf,1,1,1,1,2,0,2,2,1,1,0
16980000,1696000,28.452394800000004,-13.8671276,-0.10031803,0.03724214,-2.572324,-0.022291481,-0.0032633767,0.0,0.0050093927,-0.0023902494,-2.2939699,-2.277451,-0.06255691,-0.0080844965,0.14877982,0.038857657,-0.05645597,-2.062544,0.4042614,0.0,2.7018087,2.2939699,0.44183907,0.20851849,0.30478644,0.09127074,inf,inf,inf,inf,1,1,1,1,2,0,2,2,1,1,0
17084000,1696000,28.452394800000004,-13.8671276,-0.101205096,0.03630852,-2.8111372,-0.022291481,-0.0032633767,0.0,0.0050254595,-0.0041119764,-2.464917,-2.441706,-0.06255691,-0.0080844965,0.14877982,-0.021631056,0.036762755,-1.1912016,0.4044281,0.0,2.9406219,2.464917,0.42630988,0.20652786,0.2916247,0.089795336,inf,inf,inf,inf,1,1,1,1,2,0,2,2,1,1,0
17180000,1696000,28.452394800000004,-13.8671276,-0.10420227,0.036508333,-3.040867,-0.022291481,-0.0032633767,0.0,0.00021205502,5.0257488e-05,-2.5217354,-2.491773,-0.06255691,-0.0080844965,0.14877982,0.029676164,0.023903767,-0.26735103,0.40463147,0.0,3.1703517,2.5217354,0.4414632,0.2082454,0.30793238,0.09109928,inf,inf,inf,inf,1,1,1,1,2,0,2,2,1,1,0
17284000,1696000,28.452394800000004,-13.8671276,-0.10753629,0.037217345,-3.296841,-0.022291481,-0.0032633767,0.0,-0.0030068331,0.0030442476,-2.5021472,-2.470934,-0.06255691,-0.0080844965,0.14877982,0.03527077,0.007892791,0.54721904,0.40461588,0.0,3.4263256,2.5021472,0.42584157,0.20627774,0.29163322,0.089650474,inf,inf,inf,inf,1,1,1,1,2,0,2,2,1,1,0
17380000,1696000,28.452394800000004,-13.8671276,-0.11341783,0.038692717,-3.5304933,-0.022291481,-0.0032633767,0.0,-0.009393307,0.0041116993,-2.3968205,-2.3677385,-0.06255691,-0.0080844965,0.14877982,-0.0042440947,-0.025058568,1.5984354,0.40450725,0.0,3.659978,2.3968205,0.44136527,0.20798293,0.3052368,0.09096171,inf,inf,inf,inf,1,1,1,1,2,0,2,2,1,1,0
17484000,1696000,28.452394800000004,-13.8671276,-0.11965395,0.040416133,-3.7708888,-0.022291481,-0.0032633767,0.0,-0.015593222,0.0059071276,-2.1894884,-2.166033,-0.06255691,-0.0080844965,0.14877982,-0.0073350673,0.03702809,2.2207475,0.4047285,0.0,3.9003735,2.1894884,0.42566973,0.20604776,0.28710884,0.089540236,inf,inf,inf,inf,1,1,1,1,2,0,2,2,1,1,0
17580000,1696000,28.452394800000004,-13.8671276,-0.12767024,0.04298929,-3.976619,-0.022291481,-0.0032633767,0.0,-0.0186094,0.006986804,-2.0026865,-1.9873825,-0.06255691,-0.0080844965,0.14877982,0.049435895,-0.013644712,1.691075,0.40501538,0.0,4.106104,2.0026865,0.44139552,0.20664707,0.298291,0.09061949,inf,inf,inf,inf,1,1,1,1,2,0,2,2,1,1,0
17684000,1696000,28.452394800000004,-13.8671276,-0.13480332,0.045509454,-4.1842523,-0.022291481,-0.0032633767,0.0,-0.014640276,0.006847917,-1.864044,-1.8580436,-0.06255691,-0.0080844965,0.14877982,0.11250791,-0.0017187776,1.1728107,0.40527326,0.0,4.313737,1.864044,0.425672,0.20584767,0.27969766,0.08946309,inf,inf,inf,inf,1,1,1,1,2,0,2,2,1,1,0
17780000,1696000,28.452394800000004,-13.8671276,-0.14032197,0.04795983,-4.3714094,-0.022291481,-0.0032633767,0.0,-0.009724377,0.0050243945,-1.7703232,-1.7777212,-0.06255691,-0.0080844965,0.14877982,0.10033076,0.03656188,1.0345569,0.40525526,0.0,4.500894,1.7703232,0.44145668,0.20644729,0.28986993,0.09055267,inf,inf,inf,inf,1,1,1,1,2,0,2,2,1,1,0
17884000,1696000,28.452394800000004,-13.8671276,-0.14467557,0.05019237,-4.5621657,-0.022291481,-0.0032633767,0.0,-0.0025413092,0.0041128467,-1.6714636,-1.6895972,-0.06255691,-0.0080844965,0.14877982,0.04020374,-0.048256163,0.8885171,0.40525892,0.0,4.6916504,1.6714636,0.42568618,0.20566162,0.2729888,0.089411214,inf,inf,inf,inf,1,1,1,1,2,0,2,2,1,1,0
17980000,1696000,28.452394800000004,-13.8671276,-0.14825457,0.05261141,-4.73161,-0.022291481,-0.0032633767,0.0,0.001389677,0.0023991698,-1.6043237,-1.6321921,-0.06255691,-0.0080844965,0.14877982,0.03787361,-0.009996532,0.72312725,0.40515056,0.0,4.8610945,1.6043237,0.44151127,0.20736349,0.2829659,0.09075091,inf,inf,inf,inf,1,1,1,1,2,0,2,2,1,1,0
18084000,1696000,28.452394800000004,-13.8671276,-0.15080613,0.05455851,-4.9071493,-0.022291481,-0.0032633767,0.0,0.0055840034,0.0006491161,-1.5320334,-1.5683945,-0.06255691,-0.0080844965,0.14877982,0.03398943,0.028060384,0.6523383,0.40495077,0.0,5.036634,1.5320334,0.4257158,0.20546988,0.2669896,0.08937192,inf,inf,inf,inf,1,1,1,1,2,0,2,2,1,1,0
18180000,1696000,28.452394800000004,-13.8671276,-0.15313874,0.056773067,-5.0638123,-0.022291481,-0.0032633767,0.0,0.0036834006,0.0014537489,-1.4672854,-1.5115801,-0.06255691,-0.0080844965,0.14877982,0.017576791,0.030679569,0.66466814,0.40494898,0.0,5.193297,1.4672854,0.44155392,0.20606959,0.27647594,0.090477906,inf,inf,inf,inf,1,1,1,1,2,0,2,2,1,1,0
18284000,1696000,28.452394800000004,-13.8671276,-0.15491252,0.05856691,-5.2248197,-0.022291481,-0.0032633767,0.0,0.004592194,0.00019373678,-1.4032224,-1.4532528,-0.06255691,-0.0080844965,0.14877982,0.054060057,-0.06043573,0.60136986,0.40500373,0.0,5.3543043,1.4032224,0.42575118,0.205315,0.26125044,0.0893589,inf,inf,inf,inf,1,1,1,1,2,0,2,2,1,1,0
18380000,1696000,28.452394800000004,-13.8671276,-0.1560982,0.059635013,-5.368009,-0.022291481,-0.0032633767,0.0,0.00729683,-0.0028556997,-1.3509474,-1.405767,-0.06255691,-0.0080844965,0.14877982,-0.0401861,-0.044242926,0.5445098,0.4049309,0.0,5.4974937,1.3509474,0.4415692,0.20592922,0.27013436,0.09047557,inf,inf,inf,inf,1,1,1,1,2,0,2,2,1,1,0
18484000,1696000,28.452394800000004,-13.8671276,-0.15639238,0.06016481,-5.516788,-0.022291481,-0.0032633767,0.0,0.009825963,-0.0048736343,-1.2967618,-1.3552973,-0.06255691,-0.0080844965,0.14877982,0.03055125,-0.10554436,0.5379412,0.40495428,0.0,5.6462727,1.2967618,0.42578098,0.20517951,0.25557944,0.08935966,inf,inf,inf,inf,1,1,1,1,2,0,2,2,1,1,0
18580000,1696000,28.452394800000004,-13.8671276,-0.15611863,0.059956294,-5.6495824,-0.022291481,-0.0032633767,0.0,0.010700845,-0.005816721,-1.25174,-1.3136238,-0.06255691,-0.0080844965,0.14877982,0.0027950152,-0.046957064,0.54290885,0.40480775,0.0,5.779067,1.25174,0.44154808,0.205793,0.26398572,0.09048027,inf,inf,inf,inf,1,1,1,1,2,0,2,2,1,1,0
18684000,1696000,28.452394800000004,-13.8671276,-0.15537293,0.05959802,-5.787075,-0.022291481,-0.0032633767,0.0,0.008076407,-0.009581885,-1.2032676,-1.2670261,-0.06255691,-0.0080844965,0.14877982,-0.050301574,-0.021825165,0.45808774,0.40461653,0.0,5.9165597,1.2032676,0.42579222,0.20505781,0.25006,0.08937087,inf,inf,inf,inf,1,1,1,1,2,0,2,2,1,1,0
18788000,1696000,28.452394800000004,-13.8671276,-0.15460928,0.06014154,-5.9197435,-0.022291481,-0.0032633767,0.0,0.0061131776,-0.008799255,-1.162255,-1.2275349,-0.06255691,-0.0080844965,0.14877982,-0.02337637,-0.003881614,0.48822534,0.4048255,0.0,6.049228,1.162255,0.44284067,0.20619681,0.25863272,0.09069351,inf,inf,inf,inf,1,1,1,1,2,0,2,2,1,1,0
18884000,1696000,28.452394800000004,-13.8671276,-0.15385711,0.060626455,-6.0373325,-0.022291481,-0.0032633767,0.0,0.0076250257,-0.0054706577,-1.1251088,-1.1906343,-0.06255691,-0.0080844965,0.14877982,-0.02152487,-0.03648338,0.37485823,0.404999,0.0,6.166817,1.1251088,0.4257763,0.20496456,0.24465902,0.08939545,inf,inf,inf,inf,1,1,1,1,2,0,2,2,1,1,0
18980000,1696000,28.452394800000004,-13.8671276,-0.15378422,0.06167536,-6.1510468,-0.022291481,-0.0032633767,0.0,0.0071240366,-0.0040446096,-1.089846,-1.1552678,-0.06255691,-0.0080844965,0.14877982,-0.008950097,0.062418357,0.4246039,0.4048684,0.0,6.2805314,1.089846,0.44136614,0.20559879,0.25213543,0.09052904,inf,inf,inf,inf,1,1,1,1,2,0,2,2,1,1,0
19084000,1696000,28.452394800000004,-13.8671276,-0.15330014,0.06264796,-6.2700014,-0.022291481,-0.0032633767,0.0,0.008570919,-0.0043725185,-1.0560749,-1.1208656,-0.06255691,-0.0080844965,0.14877982,-0.0035892588,0.022349266,0.3005322,0.40474722,0.0,6.399486,1.0560749,0.42572582,0.2048878,0.23940925,0.08942665,inf,inf,inf,inf,1,1,1,1,2,0,2,2,1,1,0
19180000,1696000,28.452394800000004,-13.8671276,-0.15177326,0.06398213,-6.3761845,-0.022291481,-0.0032633767,0.0,0.011475258,-0.006505053,-1.0253112,-1.0890719,-0.06255691,-0.0080844965,0.14877982,-0.023194266,0.034748174,0.28933305,0.40488684,0.0,6.505669,1.0253112,0.44119588,0.2055219,0.24647778,0.09056072,inf,inf,inf,inf,1,1,1,1,2,0,2,2,1,1,0
19284000,1696000,28.452394800000004,-13.8671276,-0.1499116,0.06523599,-6.486504,-0.022291481,-0.0032633767,0.0,0.009786449,-0.005307047,-0.99388045,-1.055248,-0.06255691,-0.0080844965,0.14877982,0.023642292,-0.009782997,0.35475937,0.40496755,0.0,6.6159887,0.99388045,0.4256355,0.20375094,0.23431493,0.089231096,inf,inf,inf,inf,1,1,1,1,2,0,2,2,1,1,0
19380000,1696000,28.452394800000004,-13.8671276,-0.14780565,0.06757836,-6.5844016,-0.022291481,-0.0032633767,0.0,0.01013137,-0.004934372,-0.96868783,-1.0270616,-0.06255691,-0.0080844965,0.14877982,-0.06952192,-0.06343897,0.3319932,0.4049671,0.0,6.7138863,0.96868783,0.4409699,0.20548221,0.24101913,0.09060568,inf,inf,inf,inf,1,1,1,1,2,0,2,2,1,1,0
19484000,1696000,28.452394800000004,-13.8671276,-0.14568986,0.069455385,-6.687511,-0.022291481,-0.0032633767,0.0,0.008257877,-0.0041118315,-0.94188297,-0.99724466,-0.06255691,-0.0080844965,0.14877982,0.059400316,0.0093612615,0.19688903,0.4049321,0.0,6.8169956,0.94188297,0.42550263,0.2037351,0.22938336,0.08928203,inf,inf,inf,inf,1,1,1,1,2,0,2,2,1,1,0
19580000,1696000,28.452394800000004,-13.8671276,-0.14327325,0.07079903,-6.7804112,-0.022291481,-0.0032633767,0.0,0.009055075,-0.0053740838,-0.9207978,-0.9737364,-0.06255691,-0.0080844965,0.14877982,-0.022074644,-0.05521282,0.1836149,0.40499568,0.0,6.909896,0.9207978,0.44068784,0.20548613,0.23576105,0.09066386,inf,inf,inf,inf,1,1,1,1,2,0,2,2,1,1,0
19684000,1696000,28.452394800000004,-13.8671276,-0.14062163,0.07166929,-6.878483,-0.022291481,-0.0032633767,0.0,0.007030487,-0.006867168,-0.8942242,-0.9447174,-0.06255691,-0.0080844965,0.14877982,-0.08510611,-0.0708863,0.30252057,0.40495077,0.0,7.0079675,0.8942242,0.42532396,0.20375457,0.22464375,0.08934189,inf,inf,inf,inf,1,1,1,1,2,0,2,2,1,1,0
19780000,1696000,28.452394800000004,-13.8671276,-0.1371414,0.072163746,-6.9665213,-0.022291481,-0.0032633767,0.0,0.010077396,-0.0078967875,-0.8707533,-0.91918576,-0.06255691,-0.0080844965,0.14877982,-0.026449937,-0.0061190943,0.31800008,0.40490744,0.0,7.096006,0.8707533,0.44034973,0.20551449,0.23072664,0.09072555,inf,inf,inf,inf,1,1,1,1,2,0,2,2,1,1,0
19884000,1696000,28.452394800000004,-13.8671276,-0.13383865,0.07214453,-7.0590796,-0.022291481,-0.0032633767,0.0,0.008460662,-0.009896364,-0.84577316,-0.8921102,-0.06255691,-0.0080844965,0.14877982,-0.07254426,-0.0010490911,0.2594618,0.40485555,0.0,7.1885643,0.84577316,0.4250999,0.20378602,0.22008528,0.08939971,inf,inf,inf,inf,1,1,1,1,2,0,2,2,1,1,0
19980000,1696000,28.452394800000004,-13.8671276,-0.13119647,0.0717774,-7.1428714,-0.022291481,-0.0032633767,0.0,0.006378276,-0.009363025,-0.8242778,-0.86934114,-0.06255691,-0.0080844965,0.14877982,-0.0027173809,0.029766595,0.3166003,0.404813,0.0,7.272356,0.8242778,0.4399564,0.20555444,0.2258832,0.09078471,inf,inf,inf,inf,1,1,1,1,2,0,2,2,1,1,0
20084000,1696000,28.452394800000004,-13.8671276,-0.12883948,0.07114749,-7.2307887,-0.022291481,-0.0032633767,0.0,0.0030145121,-0.012018793,-0.7973128,-0.84086657,-0.06255691,-0.0080844965,0.14877982,-0.0071622194,0.0062017785,0.258171,0.404813,0.0,7.3602734,0.7973128,0.42482805,0.20382802,0.21571544,0.08945465,inf,inf,inf,inf,1,1,1,1,2,0,2,2,1,1,0
20180000,1696000,28.452394800000004,-13.8671276,-0.1263887,0.07082789,-7.310704,-0.022291481,-0.0032633767,0.0,0.0016564478,-0.011755879,-0.77765524,-0.8210681,-0.06255691,-0.0080844965,0.14877982,0.010280709,-0.03559989,0.2460079,0.40486392,0.0,7.440189,0.77765524,0.4395087,0.2056045,0.22128165,0.0908406,inf,inf,inf,inf,1,1,1,1,2,0,2,2,1,1,0
20284000,1696000,28.452394800000004,-13.8671276,-0.12437358,0.070381634,-7.3943043,-0.022291481,-0.0032633767,0.0,-4.4501503e-06,-0.0121920705,-0.7495776,-0.79219157,-0.06255691,-0.0080844965,0.14877982,-0.024821011,-0.024518134,0.3158515,0.40497464,0.0,7.523789,0.7495776,0.42450982,0.20387423,0.2115405,0.08950418,inf,inf,inf,inf,1,1,1,1,2,0,2,2,1,1,0
20388000,1696000,28.452394800000004,-13.8671276,-0.122881904,0.07032225,-7.4748015,-0.022291481,-0.0032633767,0.0,-0.003009569,-0.012299719,-0.7242788,-0.7658426,-0.06255691,-0.0080844965,0.14877982,-0.08788256,-0.013423246,0.3110468,0.40499496,0.0,7.604286,0.7242788,0.4402513,0.20508371,0.21735269,0.09084632,inf,inf,inf,inf,1,1,1,1,2,0,2,2,1,1,0
20484000,1696000,28.452394800000004,-13.8671276,-0.121851906,0.069962874,-7.546132,-0.022291481,-0.0032633767,0.0,-0.0046454584,-0.012661511,-0.7057545,-0.7456839,-0.06255691,-0.0080844965,0.14877982,-0.015176744,0.07536645,0.16360356,0.40491363,0.0,7.6756167,0.7057545,0.4241445,0.20392889,0.20759283,0.08955058,inf,inf,inf,inf,1,1,1,1,2,0,2,2,1,1,0
20588000,1696000,28.452394800000004,-13.8671276,-0.12024023,0.0699899,-7.6210303,-0.022291481,-0.0032633767,0.0,-0.006396115,-0.01145982,-0.6860401,-0.72389966,-0.06255691,-0.0080844965,0.14877982,-0.022792663,0.013086704,0.2822233,0.40486267,0.0,7.750515,0.6860401,0.43968537,0.20514522,0.21320336,0.09089285,inf,inf,inf,inf,1,1,1,1,2,0,2,2,1,1,0
20684000,1696000,28.452394800000004,-13.8671276,-0.11913908,0.0700814,-7.688385,-0.022291481,-0.0032633767,0.0,-0.006236056,-0.010140108,-0.6666792,-0.70313805,-0.06255691,-0.0080844965,0.14877982,-0.040365614,-0.10453424,0.16059633,0.404812,0.0,7.8178697,0.6666792,0.42373237,0.20398115,0.20389354,0.08958935,inf,inf,inf,inf,1,1,1,1,2,0,2,2,1,1,0
20780000,1696000,28.452394800000004,-13.8671276,-0.11788887,0.070920385,-7.753794,-0.022291481,-0.0032633767,0.0,-0.0068237437,-0.009160141,-0.6516462,-0.6865392,-0.06255691,-0.0080844965,0.14877982,-0.054372005,0.037808653,0.11428724,0.4050823,0.0,7.883279,0.6516462,0.43786538,0.20576356,0.20893097,0.09097026,inf,inf,inf,inf,1,1,1,1,2,0,2,2,1,1,0
20884000,1696000,28.452394800000004,-13.8671276,-0.116954856,0.071248844,-7.823121,-0.022291481,-0.0032633767,0.0,-0.008846751,-0.01120045,-0.6322331,-0.6658228,-0.06255691,-0.0080844965,0.14877982,0.04838976,-0.07501612,0.2099201,0.40510786,0.0,7.9526057,0.6322331,0.4232781,0.2040256,0.20044799,0.08961918,inf,inf,inf,inf,1,1,1,1,2,0,2,2,1,1,0
20980000,1696000,28.452394800000004,-13.8671276,-0.1155171,0.07112876,-7.8852572,-0.022291481,-0.0032633767,0.0,-0.008979136,-0.010578966,-0.6162237,-0.6487533,-0.06255691,-0.0080844965,0.14877982,-0.045744613,-0.0031593079,0.19063707,0.40490863,0.0,8.014742,0.6162237,0.4372296,0.20473859,0.20537674,0.09076647,inf,inf,inf,inf,1,1,1,1,2,0,2,2,1,1,0
21084000,1696000,28.452394800000004,-13.8671276,-0.11437998,0.070802554,-7.950497,-0.022291481,-0.0032633767,0.0,-0.010643216,-0.010434032,-0.5973198,-0.6283596,-0.06255691,-0.0080844965,0.14877982,-0.063651234,0.01847946,0.17636268,0.4048691,0.0,8.079982,0.5973198,0.42278495,0.20303813,0.19725546,0.08942773,inf,inf,inf,inf,1,1,1,1,2,0,2,2,1,1,0
21188000,1696000,28.452394800000004,-13.8671276,-0.112587355,0.07048149,-8.013928,-0.022291481,-0.0032633767,0.0,-0.0093555385,-0.010211589,-0.58019596,-0.6101276,-0.06255691,-0.0080844965,0.14877982,0.057337496,-0.006176298,0.25035346,0.4049167,0.0,8.143414,0.58019596,0.43773425,0.2053318,0.20249633,0.090998024,inf,inf,inf,inf,1,1,1,1,2,0,2,2,1,1,0
21284000,1696000,28.452394800000004,-13.8671276,-0.11124004,0.06996209,-8.070548,-0.022291481,-0.0032633767,0.0,-0.00988948,-0.011300483,-0.5665281,-0.5951811,-0.06255691,-0.0080844965,0.14877982,0.0074037667,-0.03466002,0.1510456,0.40477282,0.0,8.200033,0.5665281,0.42225602,0.20312876,0.19433032,0.089467,inf,inf,inf,inf,1,1,1,1,2,0,2,2,1,1,0
21380000,1696000,28.452394800000004,-13.8671276,-0.1092633,0.06962077,-8.126305,-0.022291481,-0.0032633767,0.0,-0.008710711,-0.013343543,-0.55117905,-0.57908064,-0.06255691,-0.0080844965,0.14877982,0.04514014,-0.0030382506,0.23429467,0.40477225,0.0,8.25579,0.55117905,0.43585443,0.20492733,0.19908749,0.09084839,inf,inf,inf,inf,1,1,1,1,2,0,2,2,1,1,0
21484000,1696000,28.452394800000004,-13.8671276,-0.107715964,0.068978906,-8.184402,-0.022291481,-0.0032633767,0.0,-0.009818897,-0.012782603,-0.53281015,-0.5595134,-0.06255691,-0.0080844965,0.14877982,-0.01841165,0.03254599,0.1431722,0.4048388,0.0,8.313888,0.53281015,0.42169473,0.20324193,0.19168605,0.089509875,inf,inf,inf,inf,1,1,1,1,2,0,2,2,1,1,0
21580000,1696000,28.452394800000004,-13.8671276,-0.10605339,0.06894471,-8.236186,-0.022291481,-0.0032633767,0.0,-0.012694923,-0.012113908,-0.51835,-0.54373443,-0.06255691,-0.0080844965,0.14877982,-0.040454045,-0.04917992,0.17072539,0.40475586,0.0,8.365671,0.51835,0.43512478,0.20504543,0.19638881,0.0908908,inf,inf,inf,inf,1,1,1,1,2,0,2,2,1,1,0
21684000,1696000,28.452394800000004,-13.8671276,-0.1051646,0.06860629,-8.291085,-0.022291481,-0.0032633767,0.0,-0.015397104,-0.0121162655,-0.5041159,-0.52850306,-0.06255691,-0.0080844965,0.14877982,0.020732345,0.013326236,0.13544875,0.4050507,0.0,8.42057,0.5041159,0.4211069,0.20335539,0.18929991,0.08954766,inf,inf,inf,inf,1,1,1,1,2,0,2,2,1,1,0
21780000,1696000,28.452394800000004,-13.8671276,-0.10417172,0.06867145,-8.340898,-0.022291481,-0.0032633767,0.0,-0.017496698,-0.0121268965,-0.48858905,-0.5127788,-0.06255691,-0.0080844965,0.14877982,0.00096642174,0.01655129,0.17134751,0.4048757,0.0,8.470383,0.48858905,0.43437496,0.2051526,0.19398896,0.09092374,inf,inf,inf,inf,1,1,1,1,2,0,2,2,1,1,0
21884000,1696000,28.452394800000004,-13.8671276,-0.10395923,0.06815795,-8.392557,-0.022291481,-0.0032633767,0.0,-0.0166456,-0.014364734,-0.4723876,-0.49569654,-0.06255691,-0.0080844965,0.14877982,0.07212787,0.0037065253,0.15993136,0.40488088,0.0,8.522042,0.4723876,0.44940767,0.20642063,0.19914238,0.0922281,inf,inf,inf,inf,1,1,1,1,2,0,2,2,1,1,0
21980000,1696000,28.452394800000004,-13.8671276,-0.104092985,0.06743528,-8.438358,-0.022291481,-0.0032633767,0.0,-0.017116878,-0.014387585,-0.46012446,-0.4822209,-0.06255691,-0.0080844965,0.14877982,-0.04883675,0.0011971568,0.15474203,0.40482578,0.0,8.567843,0.46012446,0.43203518,0.20516083,0.19091071,0.09077217,inf,inf,inf,inf,1,1,1,1,2,0,2,2,1,1,0
22084000,1696000,28.452394800000004,-13.8671276,-0.1042018,0.06698137,-8.487164,-0.022291481,-0.0032633767,0.0,-0.01915539,-0.013676652,-0.44622147,-0.46765453,-0.06255691,-0.0080844965,0.14877982,0.056996822,-0.0024926048,0.2277158,0.40480134,0.0,8.616649,0.44622147,0.44676694,0.20642298,0.19604301,0.092073955,inf,inf,inf,inf,1,1,1,1,2,0,2,2,1,1,0
22180000,1696000,28.452394800000004,-13.8671276,-0.10484421,0.066304736,-8.530785,-0.022291481,-0.0032633767,0.0,-0.020021448,-0.013282617,-0.43268105,-0.45352215,-0.06255691,-0.0080844965,0.14877982,0.027529486,-0.0074205087,0.033060085,0.40493745,0.0,8.66027,0.43268105,0.4298867,0.2051684,0.18832353,0.09062996,inf,inf,inf,inf,1,1,1,1,2,0,2,2,1,1,0
22284000,1696000,28.452394800000004,-13.8671276,-0.10515423,0.06555514,-8.577309,-0.022291481,-0.0032633767,0.0,-0.01847163,-0.012671848,-0.4213602,-0.4420339,-0.06255691,-0.0080844965,0.14877982,-0.06107817,-0.0367479,0.13063754,0.40476444,0.0,8.706794,0.4213602,0.44435138,0.20642519,0.19345613,0.091931015,inf,inf,inf,inf,1,1,1,1,2,0,2,2,1,1,0
22380000,1696000,28.452394800000004,-13.8671276,-0.10562984,0.064676784,-8.618215,-0.022291481,-0.0032633767,0.0,-0.016647587,-0.014396085,-0.4047955,-0.4247397,-0.06255691,-0.0080844965,0.14877982,-0.006312213,-0.010406983,0.08647888,0.40489316,0.0,8.7477,0.4047955,0.42790797,0.20411517,0.1861745,0.09026966,inf,inf,inf,inf,1,1,1,1,2,0,2,2,1,1,0
22484000,1696000,28.452394800000004,-13.8671276,-0.10552142,0.06363173,-8.660386,-0.022291481,-0.0032633767,0.0,-0.0148746455,-0.014590049,-0.39381704,-0.41236115,-0.06255691,-0.0080844965,0.14877982,0.016801262,0.031243026,0.07411278,0.4049107,0.0,8.789871,0.39381704,0.4421363,0.2064546,0.19133332,0.09181064,inf,inf,inf,inf,1,1,1,1,2,0,2,2,1,1,0
22580000,1696000,28.452394800000004,-13.8671276,-0.10551316,0.062607534,-8.698204,-0.022291481,-0.0032633767,0.0,-0.012811048,-0.013837099,-0.38462004,-0.40181407,-0.06255691,-0.0080844965,0.14877982,0.03992117,0.06808181,0.1252694,0.40481707,0.0,8.827689,0.38462004,0.42608222,0.20414712,0.18442637,0.09015955,inf,inf,inf,inf,1,1,1,1,2,0,2,2,1,1,0
22684000,1696000,28.452394800000004,-13.8671276,-0.10393001,0.06216651,-8.738748,-0.022291481,-0.0032633767,0.0,-0.0131395785,-0.013957001,-0.372977,-0.38956636,-0.06255691,-0.0080844965,0.14877982,-0.09188527,-0.033120587,0.20860787,0.4047827,0.0,8.868233,0.372977,0.44010204,0.20648234,0.18965295,0.09170032,inf,inf,inf,inf,1,1,1,1,2,0,2,2,1,1,0
22780000,1696000,28.452394800000004,-13.8671276,-0.103107706,0.061553083,-8.77412,-0.022291481,-0.0032633767,0.0,-0.011978004,-0.013050196,-0.36352137,-0.37867308,-0.06255691,-0.0080844965,0.14877982,0.027036075,-0.052951515,0.087179236,0.40492052,0.0,8.903605,0.36352137,0.42439523,0.20416722,0.18309991,0.090054676,inf,inf,inf,inf,1,1,1,1,2,0,2,2,1,1,0
22884000,1696000,28.452394800000004,-13.8671276,-0.10070906,0.06146801,-8.810585,-0.022291481,-0.0032633767,0.0,-0.009940618,-0.012155405,-0.35252503,-0.36529145,-0.06255691,-0.0080844965,0.14877982,-0.09137947,-0.018996637,0.19062123,0.40489483,0.0,8.94007,0.35252503,0.43823457,0.20648795,0.18836756,0.09159176,inf,inf,inf,inf,1,1,1,1,2,0,2,2,1,1,0
22980000,1696000,28.452394800000004,-13.8671276,-0.09914702,0.061213695,-8.843128,-0.022291481,-0.0032633767,0.0,-0.011415059,-0.0110239135,-0.34431812,-0.35508898,-0.06255691,-0.0080844965,0.14877982,-0.057904016,-0.027591078,0.033075918,0.40496278,0.0,8.972613,0.34431812,0.4228381,0.20417747,0.18213017,0.08995702,inf,inf,inf,inf,1,1,1,1,2,0,2,2,1,1,0
23084000,1696000,28.452394800000004,-13.8671276,-0.09595898,0.061349906,-8.877125,-0.022291481,-0.0032633767,0.0,-0.01276025,-0.010599005,-0.33702996,-0.34545943,-0.06255691,-0.0080844965,0.14877982,-0.032472044,-0.061916415,0.0014081596,0.4049863,0.0,9.00661,0.33702996,0.43652248,0.20540318,0.18747298,0.09125277,inf,inf,inf,inf,1,1,1,1,2,0,2,2,1,1,0
23188000,1696000,28.452394800000004,-13.8671276,-0.094046056,0.06123774,-8.91064,-0.022291481,-0.0032633767,0.0,-0.013349599,-0.010473212,-0.32969832,-0.33629695,-0.06255691,-0.0080844965,0.14877982,-0.019983023,-0.02622527,0.08788797,0.4049001,0.0,9.040125,0.32969832,0.42242363,0.2047043,0.1819097,0.09006667,inf,inf,inf,inf,1,1,1,1,2,0,2,2,1,1,0
23284000,1696000,28.452394800000004,-13.8671276,-0.092842914,0.061333492,-8.942359,-0.022291481,-0.0032633767,0.0,-0.013655961,-0.010419835,-0.3224371,-0.32900882,-0.06255691,-0.0080844965,0.14877982,0.049263556,-0.06092564,0.111304216,0.404748,0.0,9.071844,0.3224371,0.43495825,0.20543256,0.18694833,0.091178246,inf,inf,inf,inf,1,1,1,1,2,0,2,2,1,1,0
23380000,1696000,28.452394800000004,-13.8671276,-0.09235807,0.06105218,-8.973045,-0.022291481,-0.0032633767,0.0,-0.014704172,-0.010457761,-0.30981418,-0.3162378,-0.06255691,-0.0080844965,0.14877982,-0.00028923384,0.074347705,0.17322692,0.4048096,0.0,9.1025305,0.30981418,0.42008755,0.20424153,0.18118642,0.089813575,inf,inf,inf,inf,1,1,1,1,2,0,2,2,1,1,0
23484000,1696000,28.452394800000004,-13.8671276,-0.09167799,0.06130118,-9.005155,-0.022291481,-0.0032633767,0.0,-0.015369344,-0.0088560395,-0.30122823,-0.30760857,-0.06255691,-0.0080844965,0.14877982,0.10633068,-0.06262732,0.061403956,0.40480095,0.0,9.13464,0.30122823,0.43353584,0.2054777,0.18671018,0.09111986,inf,inf,inf,inf,1,1,1,1,2,0,2,2,1,1,0
23580000,1696000,28.452394800000004,-13.8671276,-0.09153622,0.06129134,-9.03471,-0.022291481,-0.0032633767,0.0,-0.014262697,-0.009337852,-0.29174802,-0.29867336,-0.06255691,-0.0080844965,0.14877982,0.030816501,-0.048398998,0.17406976,0.40467334,0.0,9.164195,0.29174802,0.41888618,0.20427307,0.18109278,0.08975524,inf,inf,inf,inf,1,1,1,1,2,0,2,2,1,1,0
23684000,1696000,28.452394800000004,-13.8671276,-0.09109536,0.061196275,-9.067067,-0.022291481,-0.0032633767,0.0,-0.015332011,-0.010085206,-0.28108683,-0.2899851,-0.06255691,-0.0080844965,0.14877982,0.05857588,-0.08307691,0.11108163,0.4046952,0.0,9.196552,0.28108683,0.4322491,0.2055022,0.1867296,0.09106158,inf,inf,inf,inf,1,1,1,1,2,0,2,2,1,1,0
23780000,1696000,28.452394800000004,-13.8671276,-0.09121764,0.06073543,-9.095693,-0.022291481,-0.0032633767,0.0,-0.015656143,-0.011310314,-0.27062273,-0.2808851,-0.06255691,-0.0080844965,0.14877982,-0.06551844,-0.050881155,0.12246332,0.40469518,0.0,9.225178,0.27062273,0.41779462,0.20431113,0.1812615,0.08970863,inf,inf,inf,inf,1,1,1,1,2,0,2,2,1,1,0
23884000,1696000,28.452394800000004,-13.8671276,-0.090551,0.060122393,-9.125574,-0.022291481,-0.0032633767,0.0,-0.015530502,-0.0135176005,-0.25771174,-0.26920024,-0.06255691,-0.0080844965,0.14877982,0.06146011,0.01488065,0.1752395,0.4048108,0.0,9.255059,0.25771174,0.43109384,0.205544,0.18695801,0.09101964,inf,inf,inf,inf,1,1,1,1,2,0,2,2,1,1,0
23980000,1696000,28.452394800000004,-13.8671276,-0.090563506,0.059260912,-9.151621,-0.022291481,-0.0032633767,0.0,-0.017314684,-0.015065639,-0.24888654,-0.26097754,-0.06255691,-0.0080844965,0.14877982,-0.064065866,0.0131898625,0.09116157,0.40499008,0.0,9.281106,0.24888654,0.41681087,0.20435493,0.18161626,0.089672364,inf,inf,inf,inf,1,1,1,1,2,0,2,2,1,1,0
24084000,1696000,28.452394800000004,-13.8671276,-0.0907832,0.05917619,-9.179172,-0.022291481,-0.0032633767,0.0,-0.017222086,-0.015511468,-0.24033442,-0.25326726,-0.06255691,-0.0080844965,0.14877982,0.02981926,0.03428914,0.07216166,0.40502548,0.0,9.308657,0.24033442,0.43006554,0.20559208,0.18739827,0.090988114,inf,inf,inf,inf,1,1,1,1,2,0,2,2,1,1,0
24188000,1696000,28.452394800000004,-13.8671276,-0.091469266,0.058735482,-9.205656,-0.022291481,-0.0032633767,0.0,-0.017739872,-0.016154233,-0.229575,-0.24308473,-0.06255691,-0.0080844965,0.14877982,0.003070847,-0.08061816,0.1568729,0.40498164,0.0,9.335141,0.229575,0.41692564,0.203857,0.18259194,0.08961251,inf,inf,inf,inf,1,1,1,1,2,0,2,2,1,1,0
24284000,1696000,28.452394800000004,-13.8671276,-0.092246145,0.05847123,-9.229738,-0.022291481,-0.0032633767,0.0,-0.016789267,-0.016459383,-0.22243229,-0.23692249,-0.06255691,-0.0080844965,0.14877982,0.009035182,-0.012008808,0.17182714,0.40500188,0.0,9.359223,0.22243229,0.42916173,0.20566179,0.18805036,0.09097256,inf,inf,inf,inf,1,1,1,1,2,0,2,2,1,1,0
24380000,1696000,28.452394800000004,-13.8671276,-0.09315522,0.057788573,-9.251911,-0.022291481,-0.0032633767,0.0,-0.014266261,-0.018311856,-0.18415174,-0.19926316,-0.06255691,-0.0080844965,0.14877982,-0.035042405,-0.06832839,0.82803047,0.4049175,0.0,9.381396,0.18415174,0.41515687,0.20342931,0.18283874,0.08941137,inf,inf,inf,inf,1,1,1,1,2,0,2,2,1,1,0
24484000,1696000,28.452394800000004,-13.8671276,-0.09314614,0.05745449,-9.268079,-0.022291481,-0.0032633767,0.0,-0.007143192,-0.015642634,-0.051304802,-0.06764672,-0.06255691,-0.0080844965,0.14877982,0.08993079,0.07759103,1.8555409,0.4048083,0.0,9.397564,0.051304802,0.42837897,0.2046662,0.18881176,0.090730205,inf,inf,inf,inf,1,1,1,1,2,0,2,2,1,1,0
24580000,1696000,28.452394800000004,-13.8671276,-0.09279446,0.056924403,-9.265291,-0.022291481,-0.0032633767,0.0,-0.001602877,-0.017392123,0.16248195,0.14603125,-0.06255691,-0.0080844965,0.14877982,0.046799712,0.026116662,2.7551804,0.40468597,0.0,9.394776,-0.16248195,0.41449073,0.20352633,0.18327217,0.08941518,inf,inf,inf,inf,1,1,1,1,2,0,2,2,1,1,0
24684000,1696000,28.452394800000004,-13.8671276,-0.091318674,0.057524856,-9.235116,-0.022291481,-0.0032633767,0.0,0.0015892163,-0.018631974,0.46235687,0.4456434,-0.06255691,-0.0080844965,0.14877982,-0.010175513,-0.07214628,2.81886,0.40444365,0.0,9.364601,-0.46235687,0.42769372,0.20476754,0.18818209,0.090737015,inf,inf,inf,inf,1,1,1,1,2,0,2,2,1,1,0
24788000,1696000,28.452394800000004,-13.8671276,-0.08991302,0.057373203,-9.176078,-0.022291481,-0.0032633767,0.0,0.0068305833,-0.018671472,0.68439656,0.6677697,-0.06255691,-0.0080844965,0.14877982,0.046280153,-0.08409208,1.5573789,0.40431806,0.0,9.305563,-0.68439656,0.4149156,0.20307691,0.18186949,0.08938774,inf,inf,inf,inf,1,1,1,1,2,0,2,2,1,1,0
24884000,1696000,28.452394800000004,-13.8671276,-0.088013195,0.056936678,-9.108424,-0.022291481,-0.0032633767,0.0,0.013143527,-0.019166023,0.780366,0.76224834,-0.06255691,-0.0080844965,0.14877982,0.024122855,0.021834726,0.64816695,0.4040682,0.0,9.237909,-0.780366,0.42704442,0.20488133,0.18560395,0.09075215,inf,inf,inf,inf,1,1,1,1,2,0,2,2,1,1,0
24980000,1696000,28.452394800000004,-13.8671276,-0.08584626,0.05608717,-9.033768,-0.022291481,-0.0032633767,0.0,0.014984313,-0.021322351,0.80019736,0.78226525,-0.06255691,-0.0080844965,0.14877982,0.07170299,-0.0015822005,-0.1652818,0.40410295,0.0,9.163253,-0.80019736,0.41336858,0.20374599,0.17977154,0.08944171,inf,inf,inf,inf,1,1,1,1,2,0,2,2,1,1,0
25084000,1696000,28.452394800000004,-13.8671276,-0.081725046,0.055907987,-8.953179,-0.022291481,-0.0032633767,0.0,0.017665401,-0.021601079,0.77731645,0.7601622,-0.06255691,-0.0080844965,0.14877982,-0.07027666,0.012502459,-0.18144678,0.40413952,0.0,9.0826645,-0.77731645,0.4264299,0.20500125,0.18536939,0.090772,inf,inf,inf,inf,1,1,1,1,2,0,2,2,1,1,0
25180000,1696000,28.452394800000004,-13.8671276,-0.07839773,0.055320047,-8.87933,-0.022291481,-0.0032633767,0.0,0.014928424,-0.02114736,0.7686352,0.753064,-0.06255691,-0.0080844965,0.14877982,-0.09948649,0.033341855,-0.033652406,0.40412706,0.0,9.008815,-0.7686352,0.4128174,0.20281151,0.1807477,0.08923507,inf,inf,inf,inf,1,1,1,1,2,0,2,2,1,1,0
25284000,1696000,28.452394800000004,-13.8671276,-0.07361645,0.05555551,-8.799352,-0.022291481,-0.0032633767,0.0,0.0146247605,-0.020054745,0.76049984,0.74717474,-0.06255691,-0.0080844965,0.14877982,-0.070250094,-0.039370358,-0.10775308,0.40397254,0.0,8.928837,-0.76049984,0.42591846,0.20511681,0.1871419,0.09079217,inf,inf,inf,inf,1,1,1,1,2,0,2,2,1,1,0
25380000,1696000,28.452394800000004,-13.8671276,-0.06988461,0.05506256,-8.7262745,-0.022291481,-0.0032633767,0.0,0.012337721,-0.022252234,0.7498045,0.73849577,-0.06255691,-0.0080844965,0.14877982,-0.05010157,0.04015425,-0.07260497,0.40379357,0.0,8.85576,-0.7498045,0.41236836,0.20292199,0.1824935,0.089254245,inf,inf,inf,inf,1,1,1,1,2,0,2,2,1,1,0
25484000,1696000,28.452394800000004,-13.8671276,-0.06478793,0.054159198,-8.647989,-0.022291481,-0.0032633767,0.0,0.011832172,-0.02130085,0.73533314,0.72626764,-0.06255691,-0.0080844965,0.14877982,-0.06604974,-0.055834472,-0.10719243,0.40391055,0.0,8.777474,-0.73533314,0.42553312,0.20523913,0.18893567,0.09081682,inf,inf,inf,inf,1,1,1,1,2,0,2,2,1,1,0
25580000,1696000,28.452394800000004,-13.8671276,-0.06102419,0.05301417,-8.576735,-0.022291481,-0.0032633767,0.0,0.010956595,-0.022051174,0.7300949,0.72287244,-0.06255691,-0.0080844965,0.14877982,0.011142256,-0.0006243426,0.004695728,0.40386742,0.0,8.70622,-0.7300949,0.4120252,0.20304361,0.18421544,0.08927934,inf,inf,inf,inf,1,1,1,1,2,0,2,2,1,1,0
25684000,1696000,28.452394800000004,-13.8671276,-0.056128733,0.052844185,-8.500659,-0.022291481,-0.0032633767,0.0,0.008919674,-0.021123888,0.72107065,0.71499944,-0.06255691,-0.0080844965,0.14877982,-0.09507112,-0.01754843,-0.09948387,0.40361252,0.0,8.630144,-0.72107065,0.42526624,0.20429313,0.1907864,0.0906088,inf,inf,inf,inf,1,1,1,1,2,0,2,2,1,1,0
25780000,1696000,28.452394800000004,-13.8671276,-0.052741647,0.052492242,-8.431378,-0.022291481,-0.0032633767,0.0,0.006043776,-0.018205212,0.7163375,0.711108,-0.06255691,-0.0080844965,0.14877982,-0.060752265,0.07207032,0.015224329,0.40366456,0.0,8.5608635,-0.7163375,0.4117838,0.20317541,0.18588303,0.08930944,inf,inf,inf,inf,1,1,1,1,2,0,2,2,1,1,0
25884000,1696000,28.452394800000004,-13.8671276,-0.04899954,0.053892456,-8.357526,-0.022291481,-0.0032633767,0.0,0.005155356,-0.017800963,0.7122549,0.7070378,-0.06255691,-0.0080844965,0.14877982,0.064930975,0.027351763,-0.041307878,0.40390825,0.0,8.487011,-0.7122549,0.42510805,0.2044348,0.1925045,0.09064344,inf,inf,inf,inf,1,1,1,1,2,0,2,2,1,1,0
25980000,1696000,28.452394800000004,-13.8671276,-0.046287477,0.05459236,-8.289249,-0.022291481,-0.0032633767,0.0,0.0041667596,-0.016678054,0.7081709,0.70342666,-0.06255691,-0.0080844965,0.14877982,-0.087017566,0.01136698,-0.050743107,0.4039292,0.0,8.418735,-0.7081709,0.41163346,0.20332186,0.18746743,0.08934604,inf,inf,inf,inf,1,1,1,1,2,0,2,2,1,1,0
26084000,1696000,28.452394800000004,-13.8671276,-0.043261323,0.056043502,-8.214035,-0.022291481,-0.0032633767,0.0,0.004726417,-0.018859843,0.7048122,0.70209366,-0.06255691,-0.0080844965,0.14877982,-0.027364787,-0.07639149,-0.11837202,0.40366685,0.0,8.34352,-0.7048122,0.42504624,0.20458555,0.19407864,0.090681486,inf,inf,inf,inf,1,1,1,1,2,0,2,2,1,1,0
26180000,1696000,28.452394800000004,-13.8671276,-0.041100424,0.056435514,-8.145621,-0.022291481,-0.0032633767,0.0,0.003854132,-0.02070185,0.6998942,0.6982608,-0.06255691,-0.0080844965,0.14877982,0.00033385,-0.051639114,-0.03452878,0.40364182,0.0,8.275106,-0.6998942,0.41156536,0.20346668,0.18889976,0.08938081,inf,inf,inf,inf,1,1,1,1,2,0,2,2,1,1,0
26284000,1696000,28.452394800000004,-13.8671276,-0.038452268,0.057387624,-8.072725,-0.022291481,-0.0032633767,0.0,0.001088787,-0.02147547,0.6945841,0.69330394,-0.06255691,-0.0080844965,0.14877982,-0.0068154763,-0.015315228,0.0037029383,0.40370372,0.0,8.20221,-0.6945841,0.42507026,0.20473462,0.19559027,0.09071796,inf,inf,inf,inf,1,1,1,1,2,0,2,2,1,1,0
26380000,1696000,28.452394800000004,-13.8671276,-0.03676768,0.057554,-8.006205,-0.022291481,-0.0032633767,0.0,-0.00031037297,-0.021153864,0.69271994,0.69130534,-0.06255691,-0.0080844965,0.14877982,-0.013102137,-0.08508869,0.058001835,0.40357834,0.0,8.13569,-0.69271994,0.41156924,0.20256817,0.19027251,0.08919123,inf,inf,inf,inf,1,1,1,1,2,0,2,2,1,1,0
26484000,1696000,28.452394800000004,-13.8671276,-0.033434633,0.058545727,-7.9355335,-0.022291481,-0.0032633767,0.0,0.0004040535,-0.019917533,0.6938421,0.69095635,-0.06255691,-0.0080844965,0.14877982,0.0013505049,0.03837372,0.016313976,0.40377814,0.0,8.065019,-0.6938421,0.42516956,0.20488739,0.196993,0.090755515,inf,inf,inf,inf,1,1,1,1,2,0,2,2,1,1,0
26580000,1696000,28.452394800000004,-13.8671276,-0.031191057,0.058860745,-7.8696494,-0.022291481,-0.0032633767,0.0,-0.001948817,-0.020079594,0.69348216,0.69008267,-0.06255691,-0.0080844965,0.14877982,-0.04878535,0.018790247,0.13033393,0.40391997,0.0,7.999134,-0.69348216,0.41163877,0.20271264,0.19146822,0.089224994,inf,inf,inf,inf,1,1,1,1,2,0,2,2,1,1,0
26684000,1696000,28.452394800000004,-13.8671276,-0.02805897,0.060686782,-7.799409,-0.022291481,-0.0032633767,0.0,-0.0028718687,-0.019950928,0.69447756,0.689413,-0.06255691,-0.0080844965,0.14877982,0.048283964,-0.077216364,-0.11125299,0.40389237,0.0,7.9288936,-0.69447756,0.42533162,0.20503306,0.19815464,0.09078907,inf,inf,inf,inf,1,1,1,1,2,0,2,2,1,1,0
26780000,1696000,28.452394800000004,-13.8671276,-0.026228277,0.06134057,-7.7341547,-0.022291481,-0.0032633767,0.0,-0.004392435,-0.019598003,0.69632095,0.6902781,-0.06255691,-0.0080844965,0.14877982,0.018338876,-0.034714364,0.051333565,0.40381834,0.0,7.8636394,-0.69632095,0.4386959,0.20580335,0.20445208,0.091896385,inf,inf,inf,inf,1,1,1,1,2,0,2,2,1,1,0
26884000,1696000,28.452394800000004,-13.8671276,-0.024810938,0.06140946,-7.6622686,-0.022291481,-0.0032633767,0.0,-0.0050962796,-0.021332102,0.70046824,0.69435483,-0.06255691,-0.0080844965,0.14877982,0.096727535,-0.0043177274,0.055684704,0.4039031,0.0,7.7917533,-0.70046824,0.42412484,0.20508997,0.19813687,0.09065766,inf,inf,inf,inf,1,1,1,1,2,0,2,2,1,1,0
26980000,1696000,28.452394800000004,-13.8671276,-0.022502614,0.061569225,-7.5963793,-0.022291481,-0.0032633767,0.0,-0.0019064225,-0.022030827,0.6938686,0.68741107,-0.06255691,-0.0080844965,0.14877982,0.023500193,-0.037141323,-0.0009983777,0.40393692,0.0,7.725864,-0.6938686,0.43745893,0.20584135,0.2043894,0.0917588,inf,inf,inf,inf,1,1,1,1,2,0,2,2,1,1,0
27084000,1696000,28.452394800000004,-13.8671276,-0.020552833,0.06142005,-7.5253506,-0.022291481,-0.0032633767,0.0,-0.0050131064,-0.021227162,0.69627374,0.68937683,-0.06255691,-0.0080844965,0.14877982,-0.0718614,-0.06500584,0.049557533,0.4039343,0.0,7.654835,-0.69627374,0.4230756,0.2051191,0.19811188,0.090526015,inf,inf,inf,inf,1,1,1,1,2,0,2,2,1,1,0
27180000,1696000,28.452394800000004,-13.8671276,-0.018412104,0.062042736,-7.4604354,-0.022291481,-0.0032633767,0.0,-0.007816132,-0.020205278,0.6966911,0.6885629,-0.06255691,-0.0080844965,0.14877982,-0.02234653,-0.049066436,-0.007946975,0.40408844,0.0,7.58992,-0.6966911,0.43639135,0.20586926,0.20441528,0.09162935,inf,inf,inf,inf,1,1,1,1,2,0,2,2,1,1,0
27284000,1696000,28.452394800000004,-13.8671276,-0.016828123,0.062121112,-7.3896847,-0.022291481,-0.0032633767,0.0,-0.006576801,-0.020894416,0.6992379,0.690187,-0.06255691,-0.0080844965,0.14877982,-0.08168912,-0.02818975,0.0061318274,0.40408084,0.0,7.5191693,-0.6992379,0.42216897,0.20408891,0.19811113,0.09017794,inf,inf,inf,inf,1,1,1,1,2,0,2,2,1,1,0
27380000,1696000,28.452394800000004,-13.8671276,-0.015593928,0.06249336,-7.3243055,-0.022291481,-0.0032633767,0.0,-0.008693059,-0.021440517,0.70115495,0.6913071,-0.06255691,-0.0080844965,0.14877982,-0.058355212,-0.07307003,0.05063321,0.40408838,0.0,7.45379,-0.70115495,0.43547294,0.2059036,0.20433001,0.09151601,inf,inf,inf,inf,1,1,1,1,2,0,2,2,1,1,0
27484000,1696000,28.452394800000004,-13.8671276,-0.014794014,0.062159847,-7.252647,-0.022291481,-0.0032633767,0.0,-0.009871896,-0.02176508,0.7003663,0.6904217,-0.06255691,-0.0080844965,0.14877982,-0.057478517,0.027214073,-0.04852097,0.40430668,0.0,7.3821316,-0.7003663,0.42138684,0.20518562,0.19803512,0.09030426,inf,inf,inf,inf,1,1,1,1,2,0,2,2,1,1,0
27580000,1696000,28.452394800000004,-13.8671276,-0.013364429,0.06154402,-7.187262,-0.022291481,-0.0032633767,0.0,-0.009974942,-0.02285189,0.698088,0.6875533,-0.06255691,-0.0080844965,0.14877982,-0.0072280234,-0.033007264,-0.0067930664,0.40425166,0.0,7.3167467,-0.698088,0.43468398,0.20590831,0.204214,0.091402575,inf,inf,inf,inf,1,1,1,1,2,0,2,2,1,1,0
27684000,1696000,28.452394800000004,-13.8671276,-0.012507502,0.06043152,-7.1162763,-0.022291481,-0.0032633767,0.0,-0.01048612,-0.022348443,0.6982148,0.6873371,-0.06255691,-0.0080844965,0.14877982,0.042907164,-0.06029449,-0.024897045,0.4040467,0.0,7.245761,-0.6982148,0.42071334,0.20516862,0.19794777,0.090190835,inf,inf,inf,inf,1,1,1,1,2,0,2,2,1,1,0
27780000,1696000,28.452394800000004,-13.8671276,-0.011795744,0.059415672,-7.0504727,-0.022291481,-0.0032633767,0.0,-0.01122107,-0.02327663,0.6998737,0.68893975,-0.06255691,-0.0080844965,0.14877982,0.0009007053,-0.017844925,0.018639488,0.40402365,0.0,7.1799574,-0.6998737,0.43400958,0.2058665,0.20412399,0.09128284,inf,inf,inf,inf,1,1,1,1,2,0,2,2,1,1,0
27884000,1696000,28.452394800000004,-13.8671276,-0.011350232,0.057930954,-6.977715,-0.022291481,-0.0032633767,0.0,-0.009663588,-0.021715332,0.6977856,0.6880859,-0.06255691,-0.0080844965,0.14877982,0.017609127,0.030943904,-0.021511687,0.40412188,0.0,7.1071997,-0.6977856,0.420138,0.20512907,0.19782695,0.090081856,inf,inf,inf,inf,1,1,1,1,2,0,2,2,1,1,0
27980000,1696000,28.452394800000004,-13.8671276,-0.009956372,0.056764558,-6.9116344,-0.022291481,-0.0032633767,0.0,-0.008009183,-0.020750267,0.6948429,0.68540746,-0.06255691,-0.0080844965,0.14877982,0.044040553,0.017893804,0.03820471,0.40408093,0.0,7.041119,-0.6948429,0.433435,0.20692362,0.2039366,0.0914219,inf,inf,inf,inf,1,1,1,1,2,0,2,2,1,1,0
28084000,1696000,28.452394800000004,-13.8671276,-0.008946296,0.055143096,-6.840059,-0.022291481,-0.0032633767,0.0,-0.008381228,-0.021316143,0.695399,0.6863773,-0.06255691,-0.0080844965,0.14877982,-0.0132773705,-0.029549336,-0.010268762,0.4039804,0.0,6.9695435,-0.695399,0.419646,0.20508969,0.19766489,0.08998654,inf,inf,inf,inf,1,1,1,1,2,0,2,2,1,1,0
28180000,1696000,28.452394800000004,-13.8671276,-0.007999085,0.05329951,-6.7746253,-0.022291481,-0.0032633767,0.0,-0.010627431,-0.0232312,0.69255614,0.68328565,-0.06255691,-0.0080844965,0.14877982,-0.08978092,-0.04531645,-0.044248994,0.40408877,0.0,6.90411,-0.69255614,0.43294677,0.2057846,0.20378117,0.091086544,inf,inf,inf,inf,1,1,1,1,2,0,2,2,1,1,0
28284000,1696000,28.452394800000004,-13.8671276,-0.007739444,0.051141746,-6.7040787,-0.022291481,-0.0032633767,0.0,-0.013195598,-0.02251971,0.69219774,0.68263555,-0.06255691,-0.0080844965,0.14877982,-0.01908111,0.07346537,0.058235597,0.4042402,0.0,6.8335633,-0.69219774,0.41922933,0.20506188,0.19744886,0.08990909,inf,inf,inf,inf,1,1,1,1,2,0,2,2,1,1,0
28380000,1696000,28.452394800000004,-13.8671276,-0.0072329817,0.04967922,-6.6394086,-0.022291481,-0.0032633767,0.0,-0.011571094,-0.02032218,0.6971308,0.68653893,-0.06255691,-0.0080844965,0.14877982,-0.0066047646,0.025169006,0.03599282,0.4043648,0.0,6.7688932,-0.6971308,0.4325333,0.20575643,0.20352332,0.09101323,inf,inf,inf,inf,1,1,1,1,2,0,2,2,1,1,0
28484000,1696000,28.452394800000004,-13.8671276,-0.0071997116,0.04817689,-6.5686707,-0.022291481,-0.0032633767,0.0,-0.01415132,-0.019816922,0.6978055,0.6866528,-0.06255691,-0.0080844965,0.14877982,-0.026719673,-0.06367274,-0.011201947,0.40431362,0.0,6.6981554,-0.6978055,0.41887647,0.20504028,0.19715482,0.0898452,inf,inf,inf,inf,1,1,1,1,2,0,2,2,1,1,0
28588000,1696000,28.452394800000004,-13.8671276,-0.0073108473,0.04736673,-6.4980426,-0.022291481,-0.0032633767,0.0,-0.016039569,-0.020019406,0.6994048,0.6876445,-0.06255691,-0.0080844965,0.14877982,-0.0048671495,-0.04935751,0.07382128,0.4041858,0.0,6.627527,-0.6994048,0.43332115,0.20624468,0.20362446,0.09114309,inf,inf,inf,inf,1,1,1,1,2,0,2,2,1,1,0
28684000,1696000,28.452394800000004,-13.8671276,-0.0074069956,0.04646226,-6.432251,-0.022291481,-0.0032633767,0.0,-0.013149251,-0.01961594,0.7007643,0.68883055,-0.06255691,-0.0080844965,0.14877982,-0.019610655,0.09374227,0.05624536,0.40422374,0.0,6.5617356,-0.7007643,0.41857436,0.20500463,0.19678381,0.08978525,inf,inf,inf,inf,1,1,1,1,2,0,2,2,1,1,0
28780000,1696000,28.452394800000004,-13.8671276,-0.006029068,0.04667634,-6.3674183,-0.022291481,-0.0032633767,0.0,-0.009862223,-0.017144024,0.6997343,0.6867005,-0.06255691,-0.0080844965,0.14877982,0.02698929,-0.016403908,0.045789402,0.4041943,0.0,6.496903,-0.6997343,0.43187776,0.20568477,0.20270774,0.09089091,inf,inf,inf,inf,1,1,1,1,2,0,2,2,1,1,0
28884000,1696000,28.452394800000004,-13.8671276,-0.005056009,0.04677028,-6.2969646,-0.022291481,-0.0032633767,0.0,-0.009939115,-0.013021712,0.70119363,0.68732625,-0.06255691,-0.0080844965,0.14877982,-0.008514296,0.002223969,0.0427952,0.4041096,0.0,6.4264493,-0.70119363,0.41831622,0.20495744,0.19636737,0.08972969,inf,inf,inf,inf,1,1,1,1,2,0,2,2,1,1,0
28980000,1696000,28.452394800000004,-13.8671276,-0.0039838594,0.047025293,-6.233079,-0.022291481,-0.0032633767,0.0,-0.010674459,-0.014541047,0.70358765,0.68782914,-0.06255691,-0.0080844965,0.14877982,0.022751758,-0.16248041,0.13407785,0.40395015,0.0,6.3625636,-0.70358765,0.43161732,0.20671399,0.20228446,0.09107247,inf,inf,inf,inf,1,1,1,1,2,0,2,2,1,1,0
29084000,1696000,28.452394800000004,-13.8671276,-0.003415631,0.04645291,-6.16258,-0.022291481,-0.0032633767,0.0,-0.008979738,-0.019097317,0.7095826,0.69274616,-0.06255691,-0.0080844965,0.14877982,0.019584723,0.035142016,0.0748122,0.40406328,0.0,6.2920647,-0.7095826,0.41809425,0.20488542,0.19593252,0.08967274,inf,inf,inf,inf,1,1,1,1,2,0,2,2,1,1,0
29188000,1696000,28.452394800000004,-13.8671276,-0.0025285399,0.045665506,-6.0908127,-0.022291481,-0.0032633767,0.0,-0.009193192,-0.018085858,0.71077,0.6937446,-0.06255691,-0.0080844965,0.14877982,-0.0027662315,0.06003142,-0.17021036,0.40409896,0.0,6.2202973,-0.71077,0.43252945,0.20605768,0.20222203,0.09096903,inf,inf,inf,inf,1,1,1,1,2,0,2,2,1,1,0
29284000,1696000,28.452394800000004,-13.8671276,-0.0023094136,0.04500038,-6.0253367,-0.022291481,-0.0032633767,0.0,-0.009689272,-0.01566308,0.7069022,0.6892253,-0.06255691,-0.0080844965,0.14877982,-0.012742602,-0.008971845,0.046502795,0.40417767,0.0,6.1548214,-0.7069022,0.4179026,0.2048265,0.1953655,0.08963,inf,inf,inf,inf,1,1,1,1,2,0,2,2,1,1,0
29380000,1696000,28.452394800000004,-13.8671276,-0.0022102315,0.044622637,-5.9608426,-0.022291481,-0.0032633767,0.0,-0.010509996,-0.017528925,0.71022946,0.6910077,-0.06255691,-0.0080844965,0.14877982,0.013915224,-0.06547356,0.042649914,0.40416053,0.0,6.0903273,-0.71022946,0.43118864,0.20549497,0.20118654,0.090741396,inf,inf,inf,inf,1,1,1,1,2,0,2,2,1,1,0
29484000,1696000,28.452394800000004,-13.8671276,-0.0026471305,0.043594893,-5.8906593,-0.022291481,-0.0032633767,0.0,-0.011433473,-0.019971367,0.7139225,0.69312,-0.06255691,-0.0080844965,0.14877982,-0.03182428,0.013795346,0.04058331,0.40409482,0.0,6.020144,-0.7139225,0.41773075,0.20479012,0.19488339,0.089603655,inf,inf,inf,inf,1,1,1,1,2,0,2,2,1,1,0
29580000,1696000,28.452394800000004,-13.8671276,-0.0034542098,0.042536814,-5.8264503,-0.022291481,-0.0032633767,0.0,-0.014347026,-0.019626064,0.7158815,0.6929562,-0.06255691,-0.0080844965,0.14877982,-0.04224636,0.011450945,0.06503611,0.40408936,0.0,5.955935,-0.7158815,0.4310081,0.20546797,0.20059912,0.09072183,inf,inf,inf,inf,1,1,1,1,2,0,2,2,1,1,0
29684000,1696000,28.452394800000004,-13.8671276,-0.0046668537,0.0413625,-5.755708,-0.022291481,-0.0032633767,0.0,-0.017027883,-0.017240457,0.72084534,0.69668794,-0.06255691,-0.0080844965,0.14877982,-0.12848121,-0.012122895,-0.012700445,0.40427044,0.0,5.885193,-0.72084534,0.41758004,0.20370503,0.19426258,0.089360565,inf,inf,inf,inf,1,1,1,1,2,0,2,2,1,1,0
29780000,1696000,28.452394800000004,-13.8671276,-0.005252759,0.04101722,-5.6904426,-0.022291481,-0.0032633767,0.0,-0.01576238,-0.017143836,0.7234877,0.69806933,-0.06255691,-0.0080844965,0.14877982,0.0027330532,-0.043234494,0.080445774,0.40423352,0.0,5.819927,-0.7234877,0.43084258,0.20546773,0.19994263,0.09071791,inf,inf,inf,inf,1,1,1,1,2,0,2,2,1,1,0
29884000,1696000,28.452394800000004,-13.8671276,-0.0060481722,0.04012697,-5.6191287,-0.022291481,-0.0032633767,0.0,-0.012150681,-0.017434793,0.72323614,0.69700825,-0.06255691,-0.0080844965,0.14877982,-0.014898861,-0.008221999,0.012508593,0.40395314,0.0,5.7486134,-0.72323614,0.41744113,0.20372488,0.19364078,0.08936639,inf,inf,inf,inf,1,1,1,1,2,0,2,2,1,1,0
29980000,1696000,28.452394800000004,-13.8671276,-0.006657032,0.038406506,-5.55255,-0.022291481,-0.0032633767,0.0,-0.01021901,-0.018963806,0.724803,0.6985155,-0.06255691,-0.0080844965,0.14877982,0.070883885,-0.037033387,-0.014533288,0.40395468,0.0,5.6820345,-0.724803,0.4306862,0.20549677,0.19926532,0.0907288,inf,inf,inf,inf,1,1,1,1,2,0,2,2,1,1,0
30084000,1696000,28.452394800000004,-13.8671276,-0.007218809,0.03653622,-5.47983,-0.022291481,-0.0032633767,0.0,-0.0074638445,-0.018354416,0.72420025,0.6983551,-0.06255691,-0.0080844965,0.14877982,0.0005097244,0.03846199,-0.0008353963,0.4039948,0.0,5.6093144,-0.72420025,0.417311,0.2037464,0.19300453,0.089374565,inf,inf,inf,inf,1,1,1,1,2,0,2,2,1,1,0
30180000,1696000,28.452394800000004,-13.8671276,-0.0071925456,0.03579773,-5.4148116,-0.022291481,-0.0032633767,0.0,-0.00863225,-0.018525265,0.72267294,0.69529116,-0.06255691,-0.0080844965,0.14877982,-0.031737056,0.013898767,0.07116794,0.4038614,0.0,5.5442963,-0.72267294,0.43053782,0.20551188,0.19860801,0.090735056,inf,inf,inf,inf,1,1,1,1,2,0,2,2,1,1,0
30284000,1696000,28.452394800000004,-13.8671276,-0.00747512,0.03464795,-5.3437643,-0.022291481,-0.0032633767,0.0,-0.008300442,-0.019110274,0.7281222,0.6995914,-0.06255691,-0.0080844965,0.14877982,-0.001825916,-0.031431224,0.09328871,0.4040264,0.0,5.473249,-0.7281222,0.41718683,0.20376514,0.1924018,0.089382775,inf,inf,inf,inf,1,1,1,1,2,0,2,2,1,1,0
30380000,1696000,28.452394800000004,-13.8671276,-0.007504891,0.033620354,-5.279268,-0.022291481,-0.0032633767,0.0,-0.009184976,-0.019087093,0.7301079,0.69933593,-0.06255691,-0.0080844965,0.14877982,0.04883378,0.020736208,0.1119608,0.4039749,0.0,5.4087524,-0.7301079,0.43039417,0.20553486,0.19794053,0.09074568,inf,inf,inf,inf,1,1,1,1,2,0,2,2,1,1,0
30484000,1696000,28.452394800000004,-13.8671276,-0.0077621224,0.032422777,-5.2089405,-0.022291481,-0.0032633767,0.0,-0.00915255,-0.01812254,0.732047,0.69925785,-0.06255691,-0.0080844965,0.14877982,0.016216392,-0.042091012,0.024636274,0.40373254,0.0,5.338425,-0.732047,0.41706923,0.20379657,0.19171418,0.089397065,inf,inf,inf,inf,1,1,1,1,2,0,2,2,1,1,0
30580000,1696000,28.452394800000004,-13.8671276,-0.0076245656,0.031759787,-5.1456237,-0.022291481,-0.0032633767,0.0,-0.0077408436,-0.014189522,0.73515594,0.69906014,-0.06255691,-0.0080844965,0.14877982,-0.023173457,0.09164745,0.14661251,0.40393054,0.0,5.2751083,-0.73515594,0.43025142,0.20557603,0.19719222,0.09076457,inf,inf,inf,inf,1,1,1,1,2,0,2,2,1,1,0
30684000,1696000,28.452394800000004,-13.8671276,-0.0076309144,0.031182917,-5.0752573,-0.022291481,-0.0032633767,0.0,-0.0069346637,-0.01322296,0.7448111,0.70642954,-0.06255691,-0.0080844965,0.14877982,-0.019156052,-0.09267104,0.04516728,0.40394813,0.0,5.204742,-0.7448111,0.41695148,0.20385437,0.19102058,0.08942267,inf,inf,inf,inf,1,1,1,1,2,0,2,2,1,1,0
30780000,1696000,28.452394800000004,-13.8671276,-0.007300492,0.031106679,-5.0096555,-0.022291481,-0.0032633767,0.0,-0.0063646133,-0.013482926,0.7471421,0.70718205,-0.06255691,-0.0080844965,0.14877982,0.04068638,-0.02772502,0.083805054,0.40399322,0.0,5.13914,-0.7471421,0.4301066,0.20457008,0.19641088,0.090560086,inf,inf,inf,inf,1,1,1,1,2,0,2,2,1,1,0
30884000,1696000,28.452394800000004,-13.8671276,-0.007211865,0.030673709,-4.936085,-0.022291481,-0.0032633767,0.0,-0.0060220733,-0.013230653,0.7511458,0.711686,-0.06255691,-0.0080844965,0.14877982,-0.028128501,-0.013366835,-0.022733582,0.40397182,0.0,5.06557,-0.7511458,0.4168334,0.20392103,0.19025767,0.08945069,inf,inf,inf,inf,1,1,1,1,2,0,2,2,1,1,0
30980000,1696000,28.452394800000004,-13.8671276,-0.0073376475,0.030263666,-4.8670063,-0.022291481,-0.0032633767,0.0,-0.007424464,-0.014929308,0.74566203,0.7077976,-0.06255691,-0.0080844965,0.14877982,-0.067710206,0.050652448,-0.061558556,0.40381736,0.0,4.996491,-0.74566203,0.4299573,0.20568769,0.19563311,0.09081201,inf,inf,inf,inf,1,1,1,1,2,0,2,2,1,1,0
31084000,1696000,28.452394800000004,-13.8671276,-0.007866506,0.029363941,-4.793114,-0.022291481,-0.0032633767,0.0,-0.008232116,-0.017979704,0.7406705,0.7038617,-0.06255691,-0.0080844965,0.14877982,-0.023715487,-0.07866924,-0.070137896,0.40374285,0.0,4.922599,-0.7406705,0.41671,0.20392595,0.18956304,0.089451365,inf,inf,inf,inf,1,1,1,1,2,0,2,2,1,1,0
31180000,1696000,28.452394800000004,-13.8671276,-0.008361819,0.028732432,-4.7265077,-0.022291481,-0.0032633767,0.0,-0.0076231784,-0.017923731,0.7368396,0.69979435,-0.06255691,-0.0080844965,0.14877982,-0.037286807,0.047186356,0.075875774,0.40374985,0.0,4.8559923,-0.7368396,0.42980567,0.20569178,0.19497974,0.090812884,inf,inf,inf,inf,1,1,1,1,2,0,2,2,1,1,0
31284000,1696000,28.452394800000004,-13.8671276,-0.009184612,0.027892342,-4.6540747,-0.022291481,-0.0032633767,0.0,-0.007839569,-0.017577562,0.73869085,0.701515,-0.06255691,-0.0080844965,0.14877982,-0.033372227,-0.094055824,-0.0085877245,0.40368578,0.0,4.7835593,-0.73869085,0.4165836,0.2039195,0.18899362,0.08944811,inf,inf,inf,inf,1,1,1,1,2,0,2,2,1,1,0
31380000,1696000,28.452394800000004,-13.8671276,-0.010337118,0.02734884,-4.588833,-0.022291481,-0.0032633767,0.0,-0.0066096215,-0.015815837,0.7378369,0.69900334,-0.06255691,-0.0080844965,0.14877982,0.003668654,-0.011149298,0.023122875,0.40344605,0.0,4.7183175,-0.7378369,0.42965296,0.20567952,0.19431677,0.09080776,inf,inf,inf,inf,1,1,1,1,2,0,2,2,1,1,0
31484000,1696000,28.452394800000004,-13.8671276,-0.011414195,0.026819028,-4.517564,-0.022291481,-0.0032633767,0.0,-0.005956094,-0.016267577,0.743261,0.7032856,-0.06255691,-0.0080844965,0.14877982,0.0054505942,0.038275316,0.11541694,0.40348762,0.0,4.6470485,-0.743261,0.416459,0.20391834,0.18832247,0.089448236,inf,inf,inf,inf,1,1,1,1,2,0,2,2,1,1,0
31580000,1696000,28.452394800000004,-13.8671276,-0.012229889,0.027787108,-4.451619,-0.022291481,-0.0032633767,0.0,-0.0037797627,-0.015158091,0.74433374,0.7032436,-0.06255691,-0.0080844965,0.14877982,-0.044283543,-0.029166583,0.030609777,0.4036584,0.0,4.581104,-0.74433374,0.42949647,0.20568308,0.1936015,0.09081051,inf,inf,inf,inf,1,1,1,1,2,0,2,2,1,1,0
31684000,1696000,28.452394800000004,-13.8671276,-0.012855208,0.028307604,-4.379482,-0.022291481,-0.0032633767,0.0,-0.0030367675,-0.017142542,0.74524164,0.7036547,-0.06255691,-0.0080844965,0.14877982,0.04546008,-0.057057567,-0.0045737247,0.40416318,0.0,4.5089664,-0.74524164,0.41633135,0.20393206,0.18761455,0.089455314,inf,inf,inf,inf,1,1,1,1,2,0,2,2,1,1,0
31788000,1696000,28.452394800000004,-13.8671276,-0.013112436,0.029437888,-4.307978,-0.022291481,-0.0032633767,0.0,-0.004429837,-0.016004203,0.7459097,0.7031764,-0.06255691,-0.0080844965,0.14877982,-0.019481288,-0.058804765,0.04827417,0.4041603,0.0,4.437463,-0.7459097,0.43044582,0.20513222,0.1932923,0.09077596,inf,inf,inf,inf,1,1,1,1,2,0,2,2,1,1,0
31884000,1696000,28.452394800000004,-13.8671276,-0.01353704,0.030012837,-4.241247,-0.022291481,-0.0032633767,0.0,-0.005260555,-0.014664372,0.74803615,0.7049823,-0.06255691,-0.0080844965,0.14877982,-0.038124327,0.0004776666,-0.005102716,0.40421245,0.0,4.370732,-0.74803615,0.41619733,0.20396927,0.18694386,0.08947237,inf,inf,inf,inf,1,1,1,1,2,0,2,2,1,1,0
31980000,1696000,28.452394800000004,-13.8671276,-0.014099994,0.03083262,-4.174441,-0.022291481,-0.0032633767,0.0,-0.0036874288,-0.016074076,0.74679357,0.70341027,-0.06255691,-0.0080844965,0.14877982,0.05386026,-0.107784495,0.011292285,0.40408283,0.0,4.3039255,-0.74679357,0.42916602,0.20467925,0.19214258,0.09060875,inf,inf,inf,inf,1,1,1,1,2,0,2,2,1,1,0
32084000,1696000,28.452394800000004,-13.8671276,-0.014344595,0.030699097,-4.101124,-0.022291481,-0.0032633767,0.0,0.00011045678,-0.020550437,0.7488931,0.70614487,-0.06255691,-0.0080844965,0.14877982,0.07699481,-0.10770514,-0.008201226,0.40385813,0.0,4.2306085,-0.7488931,0.44391504,0.20701697,0.1978451,0.09214771,inf,inf,inf,inf,1,1,1,1,2,0,2,2,1,1,0
32188000,1696000,28.452394800000004,-13.8671276,-0.014542058,0.030250274,-4.0276437,-0.022291481,-0.0032633767,0.0,0.0010773799,-0.02267606,0.7430254,0.701177,-0.06255691,-0.0080844965,0.14877982,-0.019823084,-0.049537014,-0.021832993,0.40388876,0.0,4.1571283,-0.7430254,0.4285207,0.20516826,0.19089131,0.09065379,inf,inf,inf,inf,1,1,1,1,2,0,2,2,1,1,0
32283999,1696000,28.452394800000004,-13.8671276,-0.015522889,0.031715855,-3.9605615,-0.022291481,-0.0032633767,0.0,0.0009376239,-0.020859135,0.74171954,0.7001761,-0.06255691,-0.0080844965,0.14877982,0.046200536,-0.05096577,0.055898916,0.40390205,0.0,4.0900464,-0.74171954,0.4420064,0.20698601,0.1961275,0.09199758,inf,inf,inf,inf,1,1,1,1,2,0,2,2,1,1,0
32380000,1696000,28.452394800000004,-13.8671276,-0.016207641,0.032436296,-3.8930604,-0.022291481,-0.0032633767,0.0,0.0016418769,-0.021122748,0.7405316,0.69976574,-0.06255691,-0.0080844965,0.14877982,0.038512733,-0.033733897,0.021664424,0.40416807,0.0,4.0225453,-0.7405316,0.42584834,0.20463604,0.18899152,0.09032503,inf,inf,inf,inf,1,1,1,1,2,0,2,2,1,1,0
32484000,1696000,28.452394800000004,-13.8671276,-0.016804922,0.03396567,-3.8202436,-0.022291481,-0.0032633767,0.0,0.0009613168,-0.019704478,0.73917913,0.69898254,-0.06255691,-0.0080844965,0.14877982,-0.0027811036,-0.07381631,-0.04998594,0.4042918,0.0,3.9497283,-0.73917913,0.44028428,0.20695885,0.19460918,0.091860406,inf,inf,inf,inf,1,1,1,1,2,0,2,2,1,1,0
32588000,1696000,28.452394800000004,-13.8671276,-0.017263819,0.034575116,-3.7466621,-0.022291481,-0.0032633767,0.0,0.00397485,-0.020555966,0.7374438,0.6985857,-0.06255691,-0.0080844965,0.14877982,-0.020255798,-0.033192918,-0.01502782,0.40424445,0.0,3.8761468,-0.7374438,0.42537847,0.20511203,0.18801211,0.09037606,inf,inf,inf,inf,1,1,1,1,2,0,2,2,1,1,0
32691999,1696000,28.452394800000004,-13.8671276,-0.01861559,0.035875864,-3.673176,-0.022291481,-0.0032633767,0.0,0.00415297,-0.023113703,0.7345223,0.696964,-0.06255691,-0.0080844965,0.14877982,0.027009606,-0.07208205,-0.028364932,0.40410507,0.0,3.8026607,-0.7345223,0.4397281,0.20631006,0.19357546,0.09165465,inf,inf,inf,inf,1,1,1,1,2,0,2,2,1,1,0
32795999,1696000,28.452394800000004,-13.8671276,-0.01975867,0.035969745,-3.6004035,-0.022291481,-0.0032633767,0.0,0.0030920615,-0.025043704,0.7276583,0.69110847,-0.06255691,-0.0080844965,0.14877982,0.03488691,-0.0012248135,0.0051244865,0.40426087,0.0,3.7298882,-0.7276583,0.42492163,0.20554489,0.18710054,0.09041093,inf,inf,inf,inf,1,1,1,1,2,0,2,2,1,1,0
32892000,1696000,28.452394800000004,-13.8671276,-0.021704733,0.03652577,-3.5347164,-0.022291481,-0.0032633767,0.0,0.0012962924,-0.024893925,0.7280627,0.6910941,-0.06255691,-0.0080844965,0.14877982,0.03306387,0.02206295,-0.032308508,0.40417212,0.0,3.664201,-0.7280627,0.4380684,0.20624787,0.19221918,0.09150833,inf,inf,inf,inf,1,1,1,1,2,0,2,2,1,1,0
32996000,1696000,28.452394800000004,-13.8671276,-0.023538524,0.036306426,-3.4623668,-0.022291481,-0.0032633767,0.0,-0.0011558667,-0.02579009,0.7272907,0.6909953,-0.06255691,-0.0080844965,0.14877982,0.023192521,-0.09459473,0.08205603,0.40406558,0.0,3.5918515,-0.7272907,0.4235321,0.20548128,0.18593523,0.09027413,inf,inf,inf,inf,1,1,1,1,2,0,2,2,1,1,0
33100000,1696000,28.452394800000004,-13.8671276,-0.024970585,0.03776336,-3.3905818,-0.022291481,-0.0032633767,0.0,0.0018859849,-0.026742011,0.7268471,0.69073874,-0.06255691,-0.0080844965,0.14877982,0.040504903,-0.037306983,0.027740372,0.4040254,0.0,3.5200665,-0.7268471,0.41117594,0.20372781,0.18069492,0.08894051,inf,inf,inf,inf,1,1,1,1,2,0,2,2,1,1,0
33204000,1696000,28.452394800000004,-13.8671276,-0.025685377,0.040875684,-3.3196034,-0.022291481,-0.0032633767,0.0,0.0056285313,-0.026052678,0.7266413,0.69002444,-0.06255691,-0.0080844965,0.14877982,0.01275647,-0.004999419,-0.015500001,0.40406647,0.0,3.449088,-0.7266413,0.4246866,0.2059636,0.1860808,0.090483665,inf,inf,inf,inf,1,1,1,1,2,0,2,2,1,1,0
33307999,1696000,28.452394800000004,-13.8671276,-0.025824567,0.042631283,-3.2489567,-0.022291481,-0.0032633767,0.0,0.0075776028,-0.02487859,0.7268573,0.6894384,-0.06255691,-0.0080844965,0.14877982,0.013433292,-0.021915402,0.011137677,0.40414053,0.0,3.3784413,-0.7268573,0.41216463,0.20419452,0.18078983,0.089137934,inf,inf,inf,inf,1,1,1,1,2,0,2,2,1,1,0
33411999,1696000,28.452394800000004,-13.8671276,-0.026352558,0.045135297,-3.1784568,-0.022291481,-0.0032633767,0.0,0.006400078,-0.026717598,0.73074454,0.69235337,-0.06255691,-0.0080844965,0.14877982,0.025757508,-0.018560879,0.13614777,0.40406,0.0,3.3079414,-0.73074454,0.4257164,0.20536885,0.18613009,0.09045451,inf,inf,inf,inf,1,1,1,1,2,0,2,2,1,1,0
33516000,1696000,28.452394800000004,-13.8671276,-0.02680867,0.046421595,-3.1067846,-0.022291481,-0.0032633767,0.0,0.006094299,-0.02954709,0.73296905,0.69438595,-0.06255691,-0.0080844965,0.14877982,0.0319551,-0.012422118,0.0065155323,0.4039953,0.0,3.2362692,-0.73296905,0.41315204,0.20362233,0.1808343,0.08912139,inf,inf,inf,inf,1,1,1,1,2,0,2,2,1,1,0
33612000,1696000,28.452394800000004,-13.8671276,-0.027894769,0.04884823,-3.041444,-0.022291481,-0.0032633767,0.0,0.0063907425,-0.029147001,0.7304729,0.69108903,-0.06255691,-0.0080844965,0.14877982,-0.0115486905,0.023615763,0.15788059,0.40395337,0.0,3.1709287,-0.7304729,0.4256718,0.20535146,0.18572374,0.09047309,inf,inf,inf,inf,1,1,1,1,2,0,2,2,1,1,0
33708000,1696000,28.452394800000004,-13.8671276,-0.028545346,0.049925316,-2.975949,-0.022291481,-0.0032633767,0.0,0.0062256656,-0.029871162,0.73163486,0.6917554,-0.06255691,-0.0080844965,0.14877982,0.0053306865,0.0076391436,0.0114170825,0.4041105,0.0,3.1054337,-0.73163486,0.43877232,0.20712265,0.19071348,0.09180505,inf,inf,inf,inf,1,1,1,1,2,0,2,2,1,1,0
33812000,1696000,28.452394800000004,-13.8671276,-0.028938571,0.04984656,-2.9041188,-0.022291481,-0.0032633767,0.0,0.007865379,-0.0326352,0.7339564,0.6942414,-0.06255691,-0.0080844965,0.14877982,-0.0120900795,-0.0010530711,-0.0050701196,0.40408996,0.0,3.0336034,-0.7339564,0.4241439,0.20522979,0.18445596,0.090312555,inf,inf,inf,inf,1,1,1,1,2,0,2,2,1,1,0
33908000,1696000,28.452394800000004,-13.8671276,-0.029866055,0.050666776,-2.8398798,-0.022291481,-0.0032633767,0.0,0.0075586545,-0.03484075,0.7291369,0.6876517,-0.06255691,-0.0080844965,0.14877982,-0.03364749,-0.0472207,0.07639173,0.40425125,0.0,2.9693644,-0.7291369,0.43712282,0.20699917,0.18939249,0.09164709,inf,inf,inf,inf,1,1,1,1,2,0,2,2,1,1,0
34012000,1696000,28.452394800000004,-13.8671276,-0.030461242,0.050389867,-2.7696264,-0.022291481,-0.0032633767,0.0,0.00670968,-0.035618745,0.7349133,0.6922918,-0.06255691,-0.0080844965,0.14877982,-0.027052853,-0.03196597,0.14232937,0.40430152,0.0,2.899111,-0.7349133,0.4227591,0.20619261,0.18329981,0.09040145,inf,inf,inf,inf,1,1,1,1,2,0,2,2,1,1,0
34108000,1696000,28.452394800000004,-13.8671276,-0.03091162,0.052392613,-2.7065563,-0.022291481,-0.0032633767,0.0,0.0073101865,-0.03460145,0.7354963,0.68989915,-0.06255691,-0.0080844965,0.14877982,-0.030616442,0.035300694,0.019130295,0.40435955,0.0,2.836041,-0.7354963,0.43562955,0.20684686,0.18821697,0.09149116,inf,inf,inf,inf,1,1,1,1,2,0,2,2,1,1,0
34212000,1696000,28.452394800000004,-13.8671276,-0.030923203,0.053108193,-2.6370382,-0.022291481,-0.0032633767,0.0,0.008044404,-0.036230315,0.743766,0.69615805,-0.06255691,-0.0080844965,0.14877982,-0.022406543,-0.0510378,0.090409994,0.4042505,0.0,2.766523,-0.743766,0.42150334,0.20496613,0.18224837,0.090024844,inf,inf,inf,inf,1,1,1,1,2,0,2,2,1,1,0
34308000,1696000,28.452394800000004,-13.8671276,-0.031182097,0.054856185,-2.5730977,-0.022291481,-0.0032633767,0.0,0.008435762,-0.034581408,0.74691284,0.69689375,-0.06255691,-0.0080844965,0.14877982,-0.03361425,-0.098592535,0.05142949,0.40427566,0.0,2.7025824,-0.74691284,0.434275,0.20670772,0.18710737,0.09135499,inf,inf,inf,inf,1,1,1,1,2,0,2,2,1,1,0
34412000,1696000,28.452394800000004,-13.8671276,-0.03127587,0.05541056,-2.5026722,-0.022291481,-0.0032633767,0.0,0.0076996656,-0.036222253,0.7510454,0.69950056,-0.06255691,-0.0080844965,0.14877982,0.07655283,-0.03553605,0.062877305,0.40435642,0.0,2.6321568,-0.7510454,0.42036134,0.20483339,0.18126771,0.089901194,inf,inf,inf,inf,1,1,1,1,2,0,2,2,1,1,0
34508000,1696000,28.452394800000004,-13.8671276,-0.031826112,0.056806754,-2.436231,-0.022291481,-0.0032633767,0.0,0.007218804,-0.036266845,0.7504202,0.6987911,-0.06255691,-0.0080844965,0.14877982,-0.06353817,-0.03227462,0.004312023,0.40431926,0.0,2.5657156,-0.7504202,0.43304318,0.20658171,0.18608533,0.091237925,inf,inf,inf,inf,1,1,1,1,2,0,2,2,1,1,0
34612000,1696000,28.452394800000004,-13.8671276,-0.032130912,0.05711308,-2.363457,-0.022291481,-0.0032633767,0.0,0.006809877,-0.03585735,0.7479167,0.6971519,-0.06255691,-0.0080844965,0.14877982,0.048292622,0.005825408,-0.024363397,0.40414426,0.0,2.4929416,-0.7479167,0.41931954,0.2047333,0.18040055,0.08980331,inf,inf,inf,inf,1,1,1,1,2,0,2,2,1,1,0
34708000,1696000,28.452394800000004,-13.8671276,-0.03265295,0.05962837,-2.2974918,-0.022291481,-0.0032633767,0.0,0.006357415,-0.033104528,0.74739647,0.69628483,-0.06255691,-0.0080844965,0.14877982,-0.015761616,0.049164552,0.06561074,0.40422913,0.0,2.4269764,-0.74739647,0.43192315,0.20646714,0.18523043,0.09113731,inf,inf,inf,inf,1,1,1,1,2,0,2,2,1,1,0
34812000,1696000,28.452394800000004,-13.8671276,-0.032913264,0.06093079,-2.2238703,-0.022291481,-0.0032633767,0.0,0.0075479783,-0.033426348,0.7462275,0.69692004,-0.06255691,-0.0080844965,0.14877982,0.06233819,-0.057594076,-0.016673466,0.40427288,0.0,2.353355,-0.7462275,0.41836968,0.20567584,0.1796885,0.08993307,inf,inf,inf,inf,1,1,1,1,2,0,2,2,1,1,0
34908000,1696000,28.452394800000004,-13.8671276,-0.033279017,0.0629426,-2.1557057,-0.022291481,-0.0032633767,0.0,0.0081086345,-0.036326986,0.7410298,0.6936786,-0.06255691,-0.0080844965,0.14877982,-0.001707056,-0.07814789,-0.09501445,0.404145,0.0,2.2851903,-0.7410298,0.43090576,0.20740786,0.1844814,0.0912692,inf,inf,inf,inf,1,1,1,1,2,0,2,2,1,1,0
35012000,1696000,28.452394800000004,-13.8671276,-0.033384956,0.06335718,-2.0819554,-0.022291481,-0.0032633767,0.0,0.0065585403,-0.03846043,0.7335804,0.68877286,-0.06255691,-0.0080844965,0.14877982,-0.019653438,-0.097537175,-0.0021709127,0.4041467,0.0,2.21144,-0.7335804,0.417506,0.20551658,0.17903696,0.08983193,inf,inf,inf,inf,1,1,1,1,2,0,2,2,1,1,0
35108000,1696000,28.452394800000004,-13.8671276,-0.033945117,0.0648915,-2.014433,-0.022291481,-0.0032633767,0.0,0.0044807494,-0.0392598,0.7323707,0.689295,-0.06255691,-0.0080844965,0.14877982,-0.052068844,-0.0025850385,-0.054080967,0.40399304,0.0,2.1439176,-0.7323707,0.4299825,0.20723058,0.18385604,0.09116495,inf,inf,inf,inf,1,1,1,1,2,0,2,2,1,1,0
35212000,1696000,28.452394800000004,-13.8671276,-0.03424352,0.06520783,-1.9413782,-0.022291481,-0.0032633767,0.0,0.0058576083,-0.03818482,0.7233617,0.68246275,-0.06255691,-0.0080844965,0.14877982,-0.008905422,-0.04528357,-0.13104919,0.4039795,0.0,2.070863,-0.7233617,0.41672143,0.20640315,0.17850097,0.089957744,inf,inf,inf,inf,1,1,1,1,2,0,2,2,1,1,0
35308000,1696000,28.452394800000004,-13.8671276,-0.033834342,0.06764542,-1.8745258,-0.022291481,-0.0032633767,0.0,0.0076480275,-0.037889488,0.72090477,0.68174124,-0.06255691,-0.0080844965,0.14877982,0.07796601,-0.03900467,-0.02253521,0.40417832,0.0,2.0040104,-0.72090477,0.42914614,0.20698315,0.18328778,0.09104151,inf,inf,inf,inf,1,1,1,1,2,0,2,2,1,1,0
35412000,1696000,28.452394800000004,-13.8671276,-0.033177115,0.068475276,-1.8021958,-0.022291481,-0.0032633767,0.0,0.0076769325,-0.040188834,0.7175881,0.68019164,-0.06255691,-0.0080844965,0.14877982,-0.051645327,-0.019306693,-0.054712404,0.40409467,0.0,1.9316804,-0.7175881,0.4160086,0.20615748,0.17802243,0.08984303,inf,inf,inf,inf,1,1,1,1,2,0,2,2,1,1,0
35508000,1696000,28.452394800000004,-13.8671276,-0.03315481,0.07055253,-1.736564,-0.022291481,-0.0032633767,0.0,0.005706412,-0.040431153,0.7128251,0.67621845,-0.06255691,-0.0080844965,0.14877982,-0.045239165,-0.029005116,0.008325092,0.40424797,0.0,1.8660487,-0.7128251,0.42838764,0.20675835,0.18276916,0.09094048,inf,inf,inf,inf,1,1,1,1,2,0,2,2,1,1,0
35612000,1696000,28.452394800000004,-13.8671276,-0.03283598,0.07114689,-1.6645935,-0.022291481,-0.0032633767,0.0,0.00813242,-0.04045287,0.7122734,0.67754596,-0.06255691,-0.0080844965,0.14877982,0.023860047,-0.008586503,0.054109838,0.40410328,0.0,1.7940781,-0.7122734,0.4153626,0.204881,0.17755303,0.0895298,inf,inf,inf,inf,1,1,1,1,2,0,2,2,1,1,0
35708000,1696000,28.452394800000004,-13.8671276,-0.031800956,0.07314486,-1.5967149,-0.022291481,-0.0032633767,0.0,0.007803334,-0.041049052,0.709115,0.67740947,-0.06255691,-0.0080844965,0.14877982,0.024415376,0.0015255936,0.015249475,0.40405262,0.0,1.7261995,-0.709115,0.42769948,0.20658058,0.18228398,0.09086932,inf,inf,inf,inf,1,1,1,1,2,0,2,2,1,1,0
35812000,1696000,28.452394800000004,-13.8671276,-0.030792465,0.073436745,-1.5237881,-0.022291481,-0.0032633767,0.0,0.0081582405,-0.043989453,0.6999884,0.6713601,-0.06255691,-0.0080844965,0.14877982,0.06575964,-0.048683226,-0.068714835,0.4042434,0.0,1.6532727,-0.6999884,0.4147768,0.20472357,0.17709948,0.08947142,inf,inf,inf,inf,1,1,1,1,2,0,2,2,1,1,0
35908000,1696000,28.452394800000004,-13.8671276,-0.030221436,0.07451495,-1.4568416,-0.022291481,-0.0032633767,0.0,0.0083153425,-0.046326764,0.6957536,0.6697967,-0.06255691,-0.0080844965,0.14877982,-0.07764951,-0.090314165,-0.048553567,0.40402743,0.0,1.5863262,-0.6957536,0.42707485,0.20641951,0.1818529,0.09081223,inf,inf,inf,inf,1,1,1,1,2,0,2,2,1,1,0
